Time(ms),Lat,Lon,Speed(kmph),Ax,Ay,Az,Gx,Gy,Gz,AlphaX,AlphaY,AlphaZ,Ax_ADXL,Ay_ADXL,Az_ADXL
1810,22.319267,87.302673,0.13,0.16,-0.03,8.10,-0.31,-1.55,0.85,0.41,0.37,-0.87,0.392,-0.078,8.591
2012,22.319267,87.302673,0.13,0.17,-0.08,8.07,-0.31,-1.69,0.96,0.00,-0.68,0.57,0.392,-0.078,8.630
2199,22.319267,87.302673,0.13,0.14,-0.02,7.97,-0.37,-1.58,0.86,-0.33,0.57,-0.53,0.431,-0.118,8.512
2298,22.319267,87.302673,0.13,0.13,-0.06,7.96,-0.49,-1.49,0.90,-1.16,0.93,0.39,0.392,-0.118,8.630
2443,22.319267,87.302673,0.13,0.15,-0.09,8.07,-0.39,-1.52,0.90,0.68,-0.21,0.00,0.392,-0.118,8.591
2587,22.319267,87.302673,0.13,0.14,-0.04,8.02,-0.31,-1.53,0.80,0.58,-0.05,-0.69,0.392,-0.157,8.591
2788,22.319267,87.302673,0.13,0.15,-0.05,8.10,-0.60,-1.65,1.06,-1.44,-0.61,1.29,0.392,0.000,8.669
2977,22.319263,87.302673,0.19,0.13,-0.04,7.99,-0.40,-1.57,0.98,1.01,0.40,-0.40,0.431,-0.039,8.669
3166,22.319263,87.302673,0.19,0.19,0.01,7.98,-0.29,-1.44,0.93,0.61,0.73,-0.28,0.431,-0.157,8.551
3264,22.319263,87.302673,0.19,0.13,-0.12,8.10,-0.44,-1.55,0.92,-1.56,-1.17,-0.08,0.431,-0.118,8.630
3410,22.319263,87.302673,0.19,0.11,-0.10,8.10,-0.47,-1.66,0.97,-0.16,-0.78,0.31,0.353,-0.118,8.591
3556,22.319263,87.302673,0.19,0.12,-0.06,7.99,-0.38,-1.63,0.99,0.58,0.26,0.16,0.392,-0.118,8.551
3737,22.319263,87.302673,0.19,0.22,-0.02,8.08,-0.35,-1.60,0.89,0.17,0.17,-0.59,0.353,-0.118,8.551
3941,22.319259,87.302673,0.13,0.13,-0.02,8.06,-0.58,-1.70,0.76,-1.12,-0.52,-0.60,0.392,-0.078,8.630
4129,22.319259,87.302673,0.13,0.21,-0.04,8.08,-0.26,-1.48,1.00,1.71,1.18,1.26,0.431,-0.078,8.591
4246,22.319259,87.302673,0.13,0.15,0.01,8.10,-0.26,-1.53,0.93,0.00,-0.39,-0.59,0.392,-0.157,8.591
4383,22.319259,87.302673,0.13,0.11,-0.08,8.06,-0.24,-1.56,1.04,0.17,-0.22,0.78,0.392,-0.118,8.551
4528,22.319259,87.302673,0.13,0.11,-0.05,8.07,-0.35,-1.55,0.75,-0.79,0.05,-2.00,0.431,-0.118,8.512
4673,22.319259,87.302673,0.13,0.18,-0.07,8.08,-0.32,-1.45,0.85,0.21,0.68,0.68,0.392,-0.118,8.669
4874,22.319259,87.302673,0.13,0.14,-0.07,8.03,-0.40,-1.71,0.73,-0.42,-1.29,-0.61,0.392,-0.196,8.630
5062,22.319259,87.302673,0.13,0.14,-0.10,7.98,-0.34,-1.57,1.02,0.32,0.73,1.54,0.392,-0.118,8.551
5229,22.319259,87.302673,0.13,0.11,-0.06,8.03,-0.24,-1.73,0.89,0.64,-0.91,-0.78,0.431,-0.118,8.591
5321,22.319259,87.302673,0.13,0.14,-0.02,8.01,-0.34,-1.47,0.79,-1.16,2.74,-1.00,0.392,-0.118,8.512
5467,22.319259,87.302673,0.13,0.13,-0.10,7.98,-0.34,-1.54,1.01,0.05,-0.47,1.46,0.392,-0.157,8.591
5611,22.319259,87.302673,0.13,0.21,-0.04,7.98,-0.31,-1.60,0.98,0.16,-0.37,-0.16,0.392,-0.157,8.591
5815,22.319259,87.302673,0.13,0.16,-0.11,8.06,-0.31,-1.71,0.93,0.00,-0.56,-0.26,0.353,-0.078,8.630
6016,22.319259,87.302673,0.13,0.17,-0.06,8.03,-0.31,-1.53,0.86,0.00,0.87,-0.34,0.392,-0.039,8.551
6203,22.319259,87.302673,0.13,0.19,-0.05,7.94,-0.31,-1.51,0.86,0.00,0.12,0.00,0.392,-0.118,8.551
6300,22.319259,87.302673,0.13,0.14,-0.10,8.07,-0.21,-1.47,0.98,1.10,0.39,1.26,0.431,-0.118,8.591
6443,22.319259,87.302673,0.13,0.15,-0.10,8.02,-0.40,-1.60,1.06,-1.39,-0.85,0.53,0.392,-0.078,8.551
6589,22.319259,87.302673,0.13,0.12,-0.06,7.91,-0.40,-1.63,0.80,0.00,-0.26,-1.78,0.392,-0.118,8.591
6791,22.319248,87.302665,0.09,0.14,-0.06,8.07,-0.52,-1.56,0.87,-0.57,0.34,0.34,0.431,-0.078,8.591
6988,22.319248,87.302665,0.09,0.13,-0.08,8.08,-0.31,-1.66,0.96,1.05,-0.46,0.46,0.431,-0.078,8.630
7178,22.319248,87.302665,0.09,0.10,-0.02,7.95,-0.46,-1.58,0.92,-0.76,0.40,-0.24,0.392,-0.078,8.551
7278,22.319248,87.302665,0.09,0.18,0.00,8.04,-0.39,-1.53,0.95,0.69,0.53,0.31,0.392,-0.157,8.551
7420,22.319248,87.302665,0.09,0.14,-0.04,8.13,-0.41,-1.72,0.81,-0.16,-1.34,-0.97,0.392,-0.118,8.512
7567,22.319248,87.302665,0.09,0.18,-0.10,8.08,-0.33,-1.63,0.94,0.57,0.62,0.88,0.392,-0.118,8.512
7755,22.319248,87.302665,0.09,0.11,-0.09,8.06,-0.36,-1.63,0.85,-0.16,-0.04,-0.49,0.392,-0.157,8.591
7952,22.319246,87.302665,0.02,0.18,-0.09,7.99,-0.31,-1.44,0.95,0.23,0.97,0.50,0.431,-0.196,8.630
8140,22.319246,87.302665,0.02,0.18,-0.02,7.99,-0.31,-1.65,1.05,0.04,-1.10,0.53,0.392,-0.118,8.591
8243,22.319246,87.302665,0.02,0.13,-0.07,7.98,-0.34,-1.59,0.91,-0.30,0.59,-1.33,0.431,-0.118,8.591
8384,22.319246,87.302665,0.02,0.12,0.00,7.98,-0.32,-1.57,0.95,0.11,0.11,0.27,0.392,-0.118,8.551
8527,22.319246,87.302665,0.02,0.16,-0.04,8.06,-0.28,-1.58,0.92,0.27,-0.05,-0.21,0.392,-0.157,8.512
8673,22.319246,87.302665,0.02,0.11,-0.05,8.07,-0.34,-1.51,0.94,-0.42,0.47,0.16,0.392,0.000,8.591
8873,22.319246,87.302665,0.02,0.16,0.00,8.08,-0.34,-1.39,0.95,0.00,0.61,0.04,0.392,-0.039,8.630
9060,22.319246,87.302665,0.02,0.17,-0.09,8.02,-0.47,-1.63,0.89,-0.69,-1.31,-0.29,0.431,-0.039,8.591
9227,22.319246,87.302665,0.02,0.15,-0.05,8.04,-0.44,-1.59,1.01,0.18,0.27,0.69,0.431,-0.118,8.669
9317,22.319246,87.302665,0.02,0.19,-0.04,8.08,-0.37,-1.69,0.98,0.85,-1.19,-0.34,0.392,-0.078,8.473
9462,22.319246,87.302665,0.02,0.17,-0.09,8.10,-0.31,-1.57,0.91,0.42,0.84,-0.47,0.392,-0.157,8.551
9607,22.319246,87.302665,0.02,0.16,-0.05,8.11,-0.39,-1.60,0.92,-0.58,-0.21,0.11,0.392,-0.118,8.551
9811,22.319246,87.302665,0.02,0.10,-0.08,8.00,-0.41,-1.65,0.92,-0.11,-0.22,0.00,0.431,-0.039,8.591
10011,22.319246,87.302665,0.02,0.15,-0.02,8.07,-0.28,-1.57,0.98,0.65,0.38,0.27,0.392,-0.118,8.591
10200,22.319246,87.302665,0.02,0.20,-0.05,8.08,-0.48,-1.50,1.00,-1.05,0.40,0.12,0.392,-0.078,8.591
10299,22.319246,87.302665,0.02,0.16,-0.02,8.09,-0.29,-1.37,0.94,1.93,1.23,-0.62,0.353,-0.118,8.630
10444,22.319246,87.302665,0.02,0.13,-0.07,8.14,-0.27,-1.44,0.94,0.11,-0.42,0.00,0.392,-0.157,8.551
10590,22.319246,87.302665,0.02,0.16,-0.03,8.07,-0.39,-1.65,0.90,-0.78,-1.46,-0.26,0.431,-0.118,8.591
10796,22.319232,87.302665,0.13,0.12,-0.08,8.17,-0.24,-1.42,0.89,0.74,1.11,-0.07,0.392,-0.078,8.591
10995,22.319232,87.302665,0.13,0.16,-0.07,8.07,-0.15,-1.72,1.02,0.42,-1.50,0.65,0.431,-0.039,8.669
11185,22.319232,87.302665,0.13,0.12,-0.05,8.09,-0.34,-1.55,0.95,-0.96,0.88,-0.36,0.392,-0.118,8.591
11286,22.319232,87.302665,0.13,0.15,-0.06,8.05,-0.28,-1.63,0.96,0.53,-0.83,0.15,0.392,-0.078,8.551
11431,22.319232,87.302665,0.13,0.16,-0.06,8.04,-0.47,-1.57,0.83,-1.26,0.42,-0.89,0.431,-0.118,8.512
11578,22.319232,87.302665,0.13,0.19,-0.09,8.05,-0.27,-1.54,0.98,1.35,0.21,0.99,0.431,-0.118,8.512
11776,22.319232,87.302665,0.13,0.08,-0.12,8.09,-0.32,-1.47,1.03,-0.27,0.39,0.27,0.392,-0.078,8.669
11969,22.319229,87.302658,0.04,0.14,-0.06,8.06,-0.47,-1.60,1.11,-0.79,-0.67,0.40,0.353,-0.118,8.591
12158,22.319229,87.302658,0.04,0.19,0.02,8.02,-0.32,-1.57,0.86,0.81,0.12,-1.29,0.392,-0.157,8.551
12258,22.319229,87.302658,0.04,0.09,0.00,8.07,-0.41,-1.49,0.94,-0.92,0.84,0.76,0.431,-0.118,8.551
12402,22.319229,87.302658,0.04,0.21,-0.11,8.04,-0.28,-1.62,1.05,0.90,-0.90,0.74,0.392,-0.118,8.591
12548,22.319229,87.302658,0.04,0.19,-0.08,8.03,-0.38,-1.59,1.13,-0.68,0.21,0.58,0.431,-0.196,8.551
12732,22.319229,87.302658,0.04,0.15,-0.00,8.02,-0.31,-1.65,0.91,0.37,-0.33,-1.20,0.392,-0.078,8.591
12937,22.319227,87.302658,0.02,0.14,-0.03,8.04,-0.30,-1.44,1.03,0.07,1.01,0.60,0.392,-0.078,8.591
13124,22.319227,87.302658,0.02,0.13,-0.05,8.13,-0.30,-1.70,1.01,0.00,-1.39,-0.12,0.471,-0.039,8.591
13238,22.319227,87.302658,0.02,0.18,-0.04,8.12,-0.19,-1.63,0.85,0.94,0.67,-1.41,0.392,-0.118,8.512
13376,22.319227,87.302658,0.02,0.14,-0.09,8.05,-0.40,-1.76,0.96,-1.55,-1.00,0.83,0.431,-0.118,8.591
13522,22.319227,87.302658,0.02,0.12,-0.03,8.08,-0.31,-1.57,0.98,0.63,1.31,0.16,0.392,-0.078,8.551
13667,22.319227,87.302658,0.02,0.12,-0.09,8.11,-0.32,-1.53,1.03,-0.05,0.32,0.32,0.392,-0.157,8.630
13870,22.319227,87.302658,0.02,0.15,-0.07,8.18,-0.27,-1.57,1.05,0.26,-0.23,0.08,0.431,-0.157,8.630
14059,22.319227,87.302658,0.02,0.11,-0.03,8.04,-0.40,-1.44,0.90,-0.73,0.73,-0.77,0.392,-0.078,8.591
14225,22.319227,87.302658,0.02,0.16,-0.06,8.05,-0.53,-1.51,0.92,-0.74,-0.46,0.09,0.392,-0.118,8.551
14318,22.319227,87.302658,0.02,0.10,-0.11,8.08,-0.33,-1.66,0.81,2.13,-1.56,-1.15,0.353,-0.157,8.708
14466,22.319227,87.302658,0.02,0.17,-0.07,8.00,-0.35,-1.58,0.85,-0.15,0.52,0.26,0.392,-0.157,8.551
14611,22.319227,87.302658,0.02,0.17,-0.08,7.98,-0.46,-1.59,0.83,-0.74,-0.05,-0.11,0.392,-0.039,8.591
14817,22.319227,87.302658,0.02,0.13,-0.04,8.11,-0.22,-1.54,0.94,1.15,0.22,0.52,0.392,-0.118,8.630
15020,22.319227,87.302658,0.02,0.20,-0.07,8.04,-0.45,-1.43,0.92,-1.13,0.56,-0.08,0.392,-0.078,8.551
15208,22.319227,87.302658,0.02,0.12,-0.06,8.10,-0.34,-1.64,0.95,0.57,-1.14,0.16,0.392,-0.118,8.551
15304,22.319227,87.302658,0.02,0.16,-0.04,8.10,-0.34,-1.66,0.94,0.00,-0.16,-0.16,0.431,-0.157,8.512
15451,22.319227,87.302658,0.02,0.09,-0.08,8.08,-0.35,-1.49,0.84,-0.05,1.14,-0.68,0.392,-0.157,8.630
15597,22.319227,87.302658,0.02,0.12,-0.01,8.06,-0.18,-1.60,0.89,1.20,-0.73,0.37,0.431,-0.118,8.551
15801,22.319221,87.302665,0.07,0.15,-0.05,8.05,-0.38,-1.56,0.94,-1.01,0.19,0.22,0.392,-0.118,8.591
16003,22.319221,87.302665,0.07,0.11,-0.03,8.04,-0.40,-1.58,0.95,-0.11,-0.11,0.08,0.392,-0.078,8.551
16191,22.319221,87.302665,0.07,0.19,-0.10,8.10,-0.27,-1.56,0.90,0.69,0.12,-0.28,0.392,-0.078,8.591
16290,22.319221,87.302665,0.07,0.17,-0.09,8.07,-0.32,-1.38,0.95,-0.46,1.77,0.46,0.392,-0.157,8.591
16436,22.319221,87.302665,0.07,0.15,-0.00,8.04,-0.40,-1.71,1.05,-0.58,-2.25,0.68,0.431,-0.196,8.512
16582,22.319221,87.302665,0.07,0.12,-0.05,8.05,-0.27,-1.57,0.89,0.94,0.94,-1.05,0.392,-0.157,8.512
16784,22.319221,87.302665,0.13,0.06,-0.05,8.03,-0.61,-1.39,1.07,-1.70,0.91,0.87,0.392,-0.078,8.591
16982,22.319221,87.302665,0.13,0.21,-0.04,8.08,-0.56,-1.34,0.90,0.27,0.23,-0.85,0.392,-0.039,8.591
17171,22.319221,87.302665,0.13,0.16,-0.00,8.04,-0.30,-1.49,1.02,1.37,-0.77,0.61,0.392,-0.196,8.551
17270,22.319221,87.302665,0.13,0.15,-0.06,8.05,-0.21,-1.63,0.90,0.93,-1.47,-1.16,0.431,-0.157,8.551
17417,22.319221,87.302665,0.13,0.23,-0.08,8.05,-0.31,-1.56,0.85,-0.68,0.52,-0.36,0.392,-0.157,8.512
17563,22.319221,87.302665,0.13,0.12,-0.03,8.11,-0.35,-1.55,0.88,-0.31,0.05,0.21,0.392,-0.118,8.591
17756,22.319221,87.302665,0.13,0.16,-0.06,8.07,-0.39,-1.61,1.02,-0.20,-0.32,0.75,0.353,-0.039,8.591
17953,22.319221,87.302665,0.06,0.24,0.09,8.12,-0.34,-1.56,1.13,0.23,0.23,0.54,0.471,-0.196,8.591
18141,22.319221,87.302665,0.06,0.00,-0.13,8.06,-0.22,-1.77,0.56,0.65,-1.10,-3.05,0.431,-0.118,8.512
18242,22.319221,87.302665,0.06,0.12,-0.03,8.02,-0.36,-1.82,1.01,-1.36,-0.45,4.46,0.471,-0.078,8.512
18387,22.319221,87.302665,0.06,0.24,-0.09,7.99,-0.41,-1.48,0.77,-0.37,2.32,-1.63,0.431,-0.118,8.591
18534,22.319221,87.302665,0.06,0.11,-0.09,8.15,-0.37,-1.53,1.11,0.26,-0.31,2.28,0.431,-0.196,8.591
18715,22.319221,87.302665,0.06,0.17,0.02,8.10,-0.24,-1.71,1.05,0.72,-1.01,-0.30,0.353,-0.078,8.551
18919,22.319223,87.302665,0.15,0.18,-0.02,8.07,-0.52,-1.41,0.87,-1.35,1.46,-0.90,0.392,-0.118,8.708
19106,22.319223,87.302665,0.15,0.09,-0.05,8.05,-0.36,-1.56,0.86,0.86,-0.82,-0.04,0.392,-0.118,8.669
19235,22.319223,87.302665,0.15,0.18,-0.06,8.02,-0.26,-1.65,1.00,0.77,-0.65,1.07,0.392,-0.157,8.591
19364,22.319223,87.302665,0.15,0.13,-0.08,8.10,-0.27,-1.67,0.80,-0.12,-0.18,-1.54,0.431,-0.157,8.551
19513,22.319223,87.302665,0.15,0.20,-0.06,8.12,-0.28,-1.94,1.11,-0.05,-1.79,2.05,0.392,-0.078,8.551
19659,22.319223,87.302665,0.15,0.13,-0.08,8.03,-0.27,-1.53,1.08,0.05,2.77,-0.21,0.392,-0.039,8.669
19862,22.319223,87.302665,0.15,0.14,-0.05,8.01,-0.37,-1.45,0.84,-0.49,0.41,-1.17,0.431,-0.118,8.551
20051,22.319223,87.302665,0.15,0.11,-0.09,8.02,-0.27,-1.43,0.93,0.57,0.12,0.48,0.314,-0.078,8.551
20231,22.319223,87.302665,0.15,0.14,-0.03,8.20,-0.42,-1.35,0.89,-0.85,0.42,-0.25,0.392,-0.157,8.630
20324,22.319223,87.302665,0.15,0.16,-0.00,8.08,-0.22,-1.82,0.86,2.13,-5.01,-0.25,0.392,-0.078,8.591
20470,22.319223,87.302665,0.15,0.11,-0.13,8.17,-0.50,-1.47,0.90,-1.93,2.41,0.26,0.471,-0.118,8.512
20616,22.319223,87.302665,0.15,0.11,-0.15,7.98,-0.48,-1.26,0.92,0.16,1.41,0.16,0.431,-0.157,8.551
20817,22.319223,87.302665,0.15,0.26,-0.08,8.07,-0.56,-1.35,1.15,-0.38,-0.46,1.10,0.510,-0.118,8.551
21020,22.319223,87.302665,0.15,0.10,-0.01,8.17,-0.42,-1.82,1.14,0.68,-2.33,-0.04,0.353,-0.118,8.591
21210,22.319223,87.302665,0.15,0.22,0.06,7.96,-0.37,-1.59,0.91,0.24,1.25,-1.21,0.314,0.000,8.512
21304,22.319223,87.302665,0.15,0.18,0.00,8.19,-0.11,-1.37,0.82,2.76,2.27,-0.97,0.392,-0.235,8.551
21448,22.319223,87.302665,0.15,0.15,0.00,8.19,-0.18,-1.50,0.85,-0.42,-0.85,0.21,0.471,-0.235,8.551
21594,22.319223,87.302665,0.15,0.20,-0.16,7.95,-0.06,-1.68,0.87,0.78,-1.25,0.16,0.353,-0.078,8.551
21797,22.319234,87.302680,0.15,0.06,-0.03,8.15,-0.26,-1.41,1.14,-0.98,1.32,1.32,0.392,-0.275,8.630
22001,22.319234,87.302680,0.15,0.20,0.01,8.07,-0.40,-1.91,1.10,-0.71,-2.43,-0.19,0.431,-0.039,8.669
22190,22.319234,87.302680,0.15,0.10,-0.02,8.08,-0.56,-1.52,0.69,-0.85,2.06,-2.18,0.275,-0.196,8.630
22290,22.319234,87.302680,0.15,0.08,-0.06,8.19,-0.27,-1.63,1.19,2.98,-1.15,5.04,0.471,-0.196,8.551
22435,22.319234,87.302680,0.15,0.16,-0.02,8.10,-0.23,-1.74,0.97,0.26,-0.74,-1.53,0.353,-0.157,8.551
22582,22.319234,87.302680,0.15,0.09,-0.01,8.11,-0.24,-1.85,0.99,-0.05,-0.73,0.16,0.353,-0.078,8.748
22785,22.319234,87.302680,0.09,0.14,-0.02,8.01,-0.29,-1.44,0.75,-0.26,2.03,-1.20,0.392,-0.196,8.473
22982,22.319234,87.302680,0.09,-0.05,-0.15,8.08,-0.44,-1.48,0.82,-0.74,-0.23,0.35,0.431,-0.196,8.708
23172,22.319234,87.302680,0.09,0.25,-0.11,8.06,-0.47,-2.77,1.15,-0.16,-6.79,1.73,0.392,-0.392,8.591
23273,22.319234,87.302680,0.09,0.15,-0.08,8.16,0.15,-2.26,0.79,6.05,5.06,-3.55,0.471,0.000,8.434
23416,22.319234,87.302680,0.09,0.25,0.03,8.03,-0.50,-1.42,1.10,-4.54,5.87,2.19,0.314,-0.078,8.473
23561,22.319234,87.302680,0.09,0.10,-0.01,7.92,-0.75,-1.05,0.92,-1.68,2.58,-1.26,0.510,-0.118,8.708
23754,22.319234,87.302680,0.09,0.16,-0.10,8.01,-0.27,-1.18,0.95,2.49,-0.71,0.16,0.431,-0.039,8.708
23951,22.319234,87.302680,0.07,0.21,-0.05,8.06,-0.37,-0.95,0.86,-0.50,1.20,-0.43,0.275,-0.118,8.630
24139,22.319234,87.302680,0.07,0.01,0.08,8.10,-0.77,-1.33,0.72,-2.15,-2.03,-0.77,0.353,-0.157,8.551
24241,22.319234,87.302680,0.07,0.09,-0.07,8.05,-0.13,-1.47,1.02,6.29,-1.42,2.92,0.471,-0.275,8.630
24385,22.319234,87.302680,0.07,0.09,-0.15,8.17,-0.34,-2.67,1.03,-1.43,-8.32,0.11,0.431,-0.157,8.591
24531,22.319234,87.302680,0.07,0.39,-0.15,8.05,-0.21,-2.79,1.22,0.89,-0.84,1.31,0.628,0.078,8.238
24711,22.319234,87.302680,0.07,0.39,-0.11,8.02,-0.43,-0.19,0.74,-1.23,14.46,-2.67,0.392,-0.314,8.669
24916,22.319234,87.302680,0.07,-0.00,0.06,8.16,-0.47,-1.49,0.79,-0.19,-6.33,0.22,0.353,-0.039,8.473
25104,22.319234,87.302680,0.07,0.10,-0.12,7.96,-0.36,-1.88,0.92,0.57,-2.07,0.69,0.431,0.039,8.512
25233,22.319234,87.302680,0.07,0.29,-0.09,7.94,-0.30,-1.41,0.89,0.47,3.61,-0.18,0.471,-0.078,8.630
25362,22.319234,87.302680,0.07,0.12,-0.12,8.07,-0.31,-1.15,0.82,-0.12,2.07,-0.59,0.431,-0.118,8.512
25509,22.319234,87.302680,0.07,0.15,-0.03,8.15,-0.40,-1.60,0.97,-0.62,-3.12,1.04,0.353,-0.157,8.551
25656,22.319234,87.302680,0.07,0.17,-0.07,7.95,-0.40,-1.61,1.04,0.00,-0.05,0.47,0.392,0.000,8.630
25858,22.319234,87.302680,0.07,0.22,-0.03,8.04,-0.45,-1.54,0.84,-0.23,0.34,-0.98,0.353,-0.039,8.630
26046,22.319234,87.302680,0.07,0.12,-0.13,8.06,-0.42,-1.56,0.79,0.16,-0.12,-0.28,0.392,-0.078,8.630
26224,22.319234,87.302680,0.07,0.12,-0.04,8.07,-0.45,-1.56,0.95,-0.17,0.00,0.94,0.431,-0.157,8.591
26317,22.319234,87.302680,0.07,0.17,-0.12,8.10,-0.47,-1.67,0.73,-0.16,-1.15,-2.46,0.431,-0.118,8.473
26465,22.319234,87.302680,0.07,0.20,-0.07,8.00,-0.44,-1.66,0.96,0.21,0.10,1.60,0.431,-0.157,8.512
26609,22.319234,87.302680,0.07,0.18,-0.02,8.06,-0.37,-1.35,0.83,0.42,2.12,-0.90,0.392,-0.157,8.551
26813,22.319234,87.302680,0.07,0.19,-0.02,8.04,-0.46,-1.88,0.97,-0.41,-2.58,0.67,0.431,0.000,8.591
27015,22.319234,87.302680,0.07,0.17,-0.08,8.05,-0.27,-1.44,0.84,0.94,2.19,-0.64,0.431,-0.157,8.591
27203,22.319234,87.302680,0.07,0.11,-0.10,8.04,-0.60,-1.34,0.77,-1.75,0.53,-0.37,0.431,-0.078,8.551
27300,22.319234,87.302680,0.07,0.16,-0.09,8.03,-0.15,-1.23,0.90,4.64,1.10,1.34,0.353,-0.118,8.551
27445,22.319234,87.302680,0.07,0.11,-0.02,8.06,-0.32,-1.56,0.82,-1.21,-2.32,-0.58,0.431,-0.275,8.630
27592,22.319234,87.302680,0.07,0.12,-0.08,8.01,-0.25,-1.75,1.03,0.47,-1.25,1.45,0.353,-0.078,8.473
27796,22.319244,87.302688,0.04,0.25,-0.03,7.97,-0.34,-1.59,1.05,-0.45,0.79,0.07,0.471,-0.118,8.591
27998,22.319244,87.302688,0.04,0.19,-0.08,8.12,-0.39,-1.78,0.88,-0.23,-0.94,-0.83,0.471,-0.118,8.630
28187,22.319244,87.302688,0.04,0.22,0.22,7.99,-0.01,-1.57,0.73,2.02,1.09,-0.81,0.235,-0.078,8.512
28285,22.319244,87.302688,0.04,0.05,0.23,7.80,-0.79,-1.07,1.10,-7.95,5.14,3.82,0.314,-0.157,8.630
28430,22.319244,87.302688,0.04,0.21,-0.01,8.24,-0.20,-2.28,1.02,4.05,-8.37,-0.53,0.235,-0.118,8.669
28576,22.319244,87.302688,0.04,0.21,0.08,7.98,-0.44,-1.53,0.96,-1.62,5.12,-0.42,0.510,-0.118,8.748
28777,22.319244,87.302688,0.04,0.18,-0.25,7.99,-0.15,-1.42,0.95,1.41,0.57,-0.08,0.196,-0.118,8.630
28975,22.319244,87.302688,0.02,0.15,0.12,8.23,-0.80,-1.55,0.96,-3.28,-0.66,0.08,0.118,0.000,8.669
29164,22.319244,87.302688,0.02,0.20,0.33,8.36,-0.24,-1.21,0.92,2.99,1.82,-0.24,0.157,-0.157,8.787
29263,22.319244,87.302688,0.02,0.25,0.68,8.08,0.60,-2.94,0.92,8.40,-17.50,0.08,0.157,-0.078,8.551
29408,22.319244,87.302688,0.02,0.35,0.40,8.29,1.76,-2.25,0.74,8.00,4.74,-1.26,0.314,-0.196,8.708
29551,22.319244,87.302688,0.02,0.05,-0.08,7.42,-1.15,0.60,1.35,-20.29,19.91,4.27,0.824,-0.392,8.081
29736,22.319244,87.302688,0.02,-0.14,1.03,7.37,1.27,-2.06,1.42,13.04,-14.36,0.37,-0.039,-0.078,7.728
29941,22.319246,87.302688,0.35,0.23,0.15,8.98,0.18,-4.18,1.46,-5.32,-10.31,0.19,-0.078,-0.314,8.041
30131,22.319246,87.302688,0.35,0.09,-0.28,8.79,-0.06,-1.61,0.92,-1.25,13.50,-2.85,0.431,-0.078,8.473
30240,22.319246,87.302688,0.35,0.54,-0.51,6.84,-0.23,-2.43,1.89,-1.54,-7.49,8.89,0.235,0.078,8.473
30379,22.319246,87.302688,0.35,0.17,0.97,7.67,0.94,-0.47,2.92,8.40,14.11,7.41,-0.471,-0.118,7.688
30523,22.319246,87.302688,0.35,0.44,0.57,7.73,-0.34,2.21,2.31,-8.91,18.55,-4.19,-0.078,0.039,8.904
30669,22.319246,87.302688,0.35,-0.16,0.37,9.05,-0.57,-0.77,2.95,-1.57,-20.39,4.39,0.118,-0.078,8.708
30875,22.319246,87.302688,0.35,-0.04,0.13,8.46,-0.73,-0.94,3.53,-0.74,-0.82,2.82,0.000,-0.078,8.708
31065,22.319246,87.302688,0.35,0.15,0.41,8.41,-0.91,-1.13,3.37,-0.96,-1.00,-0.84,0.275,-0.235,8.826
31241,22.319246,87.302688,0.35,0.28,0.23,7.67,-0.11,-2.22,3.49,4.55,-6.20,0.65,0.118,-0.275,8.865
31332,22.319246,87.302688,0.35,0.06,0.32,8.31,0.02,-1.98,3.53,1.34,2.60,0.42,0.431,-0.314,8.748
31474,22.319246,87.302688,0.35,0.15,0.47,8.28,-0.41,-1.12,3.56,-3.01,6.07,0.27,0.275,-0.196,8.159
31619,22.319246,87.302688,0.35,-0.21,0.45,7.80,-1.59,-1.34,3.48,-8.11,-1.47,-0.58,0.392,-0.118,9.218
31825,22.319246,87.302688,0.35,0.15,0.42,8.28,-0.76,-2.42,3.90,4.04,-5.26,2.04,0.314,-0.235,8.277
32027,22.319246,87.302688,0.35,-0.02,0.43,7.89,0.08,-2.17,3.57,4.12,1.25,-1.62,-0.039,-0.196,8.394
32216,22.319246,87.302688,0.35,-0.06,0.24,7.93,-0.49,-0.84,3.92,-2.99,7.03,1.86,-0.078,-0.392,8.748
32314,22.319246,87.302688,0.35,0.21,0.57,8.11,-1.33,-1.57,3.79,-8.57,-7.48,-1.40,0.078,-0.353,8.708
32459,22.319246,87.302688,0.35,-0.11,-0.70,8.73,-0.47,-3.93,2.86,5.95,-16.27,-6.37,-0.941,-0.235,7.963
32610,22.319246,87.302688,0.35,0.46,0.29,7.56,0.81,-0.50,5.99,8.44,22.75,20.73,0.785,0.196,9.336
32812,22.319246,87.302688,0.35,-0.12,0.79,7.43,0.27,-1.90,3.26,-2.65,-6.95,-13.53,-0.392,-0.353,8.394
33015,22.319246,87.302688,0.35,0.24,0.27,9.44,0.17,-2.15,2.52,-0.53,-1.20,-3.65,-0.157,-0.275,9.650
33203,22.319246,87.302688,0.35,0.02,0.76,7.85,0.33,-3.98,3.46,0.85,-9.79,4.99,0.235,-0.157,8.630
33301,22.319246,87.302688,0.35,0.67,0.05,8.68,-1.88,-1.41,2.55,-22.51,26.25,-9.27,-0.196,-0.039,8.120
33448,22.319246,87.302688,0.35,-0.17,0.05,9.02,-1.69,-1.58,3.22,1.25,-1.14,4.57,0.118,-0.353,9.022
33594,22.319246,87.302688,0.35,0.29,-0.33,8.08,0.00,-1.50,2.85,11.61,0.52,-2.56,-0.314,-0.510,7.728
33800,22.319246,87.302688,0.35,0.45,0.98,8.63,-0.32,-3.22,2.28,-1.56,-8.34,-2.74,0.039,-0.431,8.865
33998,22.319246,87.302688,0.35,0.33,1.09,7.65,0.41,-3.26,2.81,3.70,-0.19,2.66,-0.431,-0.235,8.198
34187,22.319246,87.302688,0.35,0.24,0.30,7.86,0.69,-3.08,3.14,1.49,0.93,1.74,0.431,-0.157,7.806
34284,22.319246,87.302688,0.35,0.06,0.51,8.52,1.17,-3.15,2.53,4.88,-0.63,-6.22,-0.353,0.157,8.983
34427,22.319246,87.302688,0.35,0.09,-0.05,7.32,-0.75,0.18,2.85,-13.40,23.22,2.24,-0.118,0.039,9.454
34574,22.319246,87.302688,0.35,0.30,-0.49,7.28,-0.56,-1.11,3.29,1.30,-8.72,2.96,0.628,-0.157,8.394
34776,22.319246,87.302688,0.35,-0.31,1.12,7.51,2.93,-2.82,3.53,17.27,-8.50,1.21,0.275,-0.353,9.061
34971,22.319236,87.302658,6.07,0.16,0.11,8.14,-1.38,-1.86,3.17,-22.12,4.93,-1.88,0.314,0.196,8.238
35161,22.319236,87.302658,6.07,0.20,-0.10,7.88,-1.59,0.89,3.64,-1.08,14.50,2.49,0.392,-0.078,8.826
35262,22.319236,87.302658,6.07,0.20,0.46,8.09,-0.27,-0.66,4.04,13.08,-15.34,3.93,0.196,-0.275,8.512
35407,22.319236,87.302658,6.07,0.32,0.76,8.50,1.26,-2.79,3.52,10.53,-14.69,-3.58,-0.235,-0.235,9.336
35555,22.319236,87.302658,6.07,0.37,0.84,7.54,-0.47,-1.62,3.93,-11.71,7.89,2.79,0.118,-0.157,8.826
35746,22.319236,87.302658,6.07,-0.03,0.46,8.09,-0.73,-1.19,3.89,-1.36,2.24,-0.24,0.235,-0.235,8.904
35944,22.319231,87.302642,6.67,0.35,0.34,7.51,0.66,0.18,3.54,7.02,6.94,-1.73,-0.314,-0.392,8.512
36132,22.319231,87.302642,6.67,0.40,0.55,8.77,0.96,-2.21,3.30,1.62,-12.71,-1.30,0.000,-0.118,8.355
36251,22.319231,87.302642,6.67,0.34,0.08,7.63,-2.57,-2.16,3.34,-29.70,0.38,0.38,0.275,-0.196,7.924
36389,22.319231,87.302642,6.67,0.37,0.79,7.40,2.84,-2.22,3.40,39.22,-0.44,0.39,0.039,-0.157,9.022
36534,22.319231,87.302642,6.67,0.52,-0.17,8.09,2.27,-0.02,3.40,-3.95,15.16,0.00,-0.196,-0.078,8.748
36715,22.319231,87.302642,6.67,-0.05,0.74,7.36,-0.47,-0.58,3.34,-15.10,-3.08,-0.30,0.078,-0.275,7.924
36921,22.319231,87.302642,6.67,0.42,-0.07,9.65,0.47,-1.72,1.34,4.52,-5.52,-9.71,-0.275,0.078,9.101
37110,22.319231,87.302642,6.67,0.43,-0.47,6.81,-2.07,-1.92,1.34,-13.41,-1.09,0.00,0.314,0.196,9.257
37249,22.319231,87.302642,6.67,0.66,0.02,8.03,0.37,-1.19,0.86,17.57,5.27,-3.46,0.118,0.078,8.865
37366,22.319231,87.302642,6.67,0.12,0.50,6.08,4.26,1.72,0.76,33.21,24.86,-0.85,-0.118,0.000,7.845
37511,22.319231,87.302642,6.67,0.12,-0.06,8.25,-0.24,-1.45,0.56,-31.06,-21.85,-1.42,-0.431,-0.549,8.041
37662,22.319231,87.302642,6.67,0.76,-0.34,8.13,-0.15,-0.37,0.71,0.61,7.18,1.01,0.314,0.275,8.120
37864,22.319231,87.302642,6.67,-0.04,0.53,7.13,1.47,-1.80,0.15,8.01,-7.10,-2.76,0.000,-0.157,8.865
38053,22.319231,87.302642,6.67,0.43,-0.00,6.86,0.27,-3.82,-0.53,-6.30,-10.66,-3.59,0.275,0.078,8.434
38232,22.319231,87.302642,6.67,0.27,0.28,8.75,0.67,-1.61,-0.89,2.22,12.32,-2.05,0.196,0.118,8.041
38323,22.319231,87.302642,6.67,0.44,0.28,6.73,0.60,-1.99,-0.93,-0.75,-4.19,-0.42,0.431,0.157,9.454
38468,22.319231,87.302642,6.67,0.22,0.05,7.99,-1.08,-1.56,-1.07,-11.58,2.95,-0.95,0.078,-0.039,8.355
38616,22.319231,87.302642,6.67,0.58,0.48,7.59,-1.73,-3.50,-1.44,-4.38,-13.10,-2.48,0.196,-0.118,8.708
38823,22.319231,87.302642,6.67,0.90,0.28,7.37,2.40,-1.94,-1.70,19.95,7.56,-1.29,0.157,0.000,7.806
39026,22.319231,87.302642,6.67,0.99,0.02,9.32,0.05,-3.22,-1.64,-11.62,-6.32,0.30,0.353,0.118,8.865
39215,22.319231,87.302642,6.67,0.76,0.27,7.88,0.73,-4.37,-1.66,3.64,-6.06,-0.08,0.314,0.431,8.316
39311,22.319231,87.302642,6.67,0.83,0.06,7.93,0.52,-4.40,-1.66,-2.23,-0.40,-0.08,0.000,0.588,7.728
39455,22.319231,87.302642,6.67,0.76,-0.01,8.10,-2.18,-4.60,-1.54,-18.71,-1.33,0.85,-0.078,0.157,9.140
39605,22.319231,87.302642,6.67,0.82,0.33,7.98,1.94,-5.62,-1.36,27.43,-6.82,1.22,-0.431,0.588,7.924
39809,22.319231,87.302642,6.67,1.18,-0.15,7.25,0.68,-4.17,-1.05,-6.17,7.11,1.50,0.353,0.588,9.297
40010,22.319231,87.302642,6.67,0.73,0.11,7.59,2.71,-0.62,-0.81,10.10,17.66,1.22,0.118,0.785,8.277
40201,22.319231,87.302642,6.67,0.84,-0.09,8.72,-2.11,-1.60,-0.84,-25.22,-5.16,-0.16,0.549,0.981,9.179
40304,22.319231,87.302642,6.67,1.01,-0.14,7.38,1.20,-1.29,-1.57,32.09,3.04,-7.11,0.471,0.667,8.277
40449,22.319231,87.302642,6.67,0.94,0.10,9.10,-1.57,-3.27,-1.42,-19.11,-13.69,1.05,0.510,0.785,10.003
40597,22.319231,87.302642,6.67,1.05,0.37,7.12,0.50,-2.26,-1.89,13.98,6.86,-3.15,0.392,1.138,8.904
40801,22.319231,87.302642,6.67,0.84,-0.00,7.60,2.36,-3.15,-2.24,9.13,-4.34,-1.72,0.157,0.667,8.159
41004,22.319231,87.302642,6.67,1.27,-0.70,8.64,0.27,-2.89,-2.53,-10.27,1.28,-1.43,0.392,0.824,8.198
41194,22.319231,87.302642,6.67,1.49,-0.01,7.64,-0.44,-3.06,-2.03,-3.74,-0.92,2.61,0.196,0.902,8.591
41294,22.319231,87.302642,6.67,0.95,0.09,8.42,-0.01,-2.20,-2.66,4.27,8.63,-6.26,0.314,0.863,8.630
41439,22.319231,87.302642,6.67,1.08,0.58,8.04,4.40,-1.59,-2.40,30.43,4.21,1.74,0.118,0.588,8.277
41582,22.319231,87.302642,6.67,1.38,0.67,7.74,-3.04,-1.04,-2.63,-52.05,3.84,-1.60,0.588,0.824,8.983
41786,22.319213,87.302528,11.72,1.53,0.15,7.64,1.14,0.02,-2.99,20.47,5.20,-1.76,0.510,0.863,9.140
41982,22.319213,87.302528,11.72,1.00,0.26,7.04,2.27,-1.53,-2.76,5.76,-7.95,1.21,0.471,0.981,9.022
42173,22.319213,87.302528,11.72,1.37,0.05,9.18,-4.47,-2.65,-2.64,-35.25,-5.84,0.60,0.039,0.902,8.512
42275,22.319213,87.302528,11.72,1.33,0.78,9.04,-6.97,0.35,-2.28,-24.55,29.41,3.52,0.588,1.020,8.081
42422,22.319213,87.302528,11.72,1.30,0.00,7.61,0.22,-0.19,-2.33,48.92,-3.69,-0.31,0.235,1.334,9.022
42568,22.319213,87.302528,11.72,0.89,0.15,7.74,-1.31,-2.75,-3.00,-10.46,-17.52,-4.60,0.471,1.059,7.649
42773,22.319213,87.302528,11.72,1.69,0.44,7.81,3.01,-2.05,-2.00,21.04,3.39,4.88,0.000,1.059,7.885
42968,22.319215,87.302497,12.06,1.40,0.36,7.88,0.37,-0.63,-1.51,-13.51,7.28,2.51,0.628,1.177,8.983
43158,22.319215,87.302497,12.06,1.11,0.43,8.66,-7.92,-1.02,-0.74,-43.67,-2.05,4.06,0.431,0.785,8.355
43260,22.319215,87.302497,12.06,1.39,0.01,9.74,-5.22,-2.88,-0.40,26.49,-18.19,3.37,0.628,0.549,7.806
43408,22.319215,87.302497,12.06,1.32,-0.52,7.71,2.56,0.15,-1.34,52.56,20.43,-6.34,0.745,0.471,7.924
43554,22.319215,87.302497,12.06,1.23,0.11,8.35,-3.82,-2.32,-0.48,-43.71,-16.89,5.86,0.510,0.745,8.551
43755,22.319215,87.302497,12.06,0.89,0.33,7.44,5.01,-3.18,-0.08,43.94,-4.25,2.01,0.588,0.588,8.944
43948,22.319213,87.302467,11.50,1.44,0.04,7.19,-0.61,-1.92,0.78,-29.11,6.53,4.43,0.785,0.628,8.394
44138,22.319213,87.302467,11.50,0.79,-0.35,8.97,-1.15,-1.75,1.02,-2.81,0.88,1.25,0.628,1.138,7.571
44251,22.319213,87.302467,11.50,0.76,-0.14,7.96,1.61,0.17,1.56,24.39,16.96,4.80,0.235,0.863,8.512
44387,22.319213,87.302467,11.50,0.43,-0.47,7.39,0.95,-1.22,1.50,-4.88,-10.22,-0.45,0.431,0.785,9.924
44534,22.319213,87.302467,11.50,0.76,-0.28,7.63,2.74,-2.39,1.41,12.20,-7.95,-0.57,0.353,1.020,9.218
44719,22.319213,87.302467,11.50,1.16,-0.29,7.94,3.32,-1.85,0.69,3.14,2.89,-3.88,1.020,0.471,6.904
44925,22.319206,87.302436,11.89,0.79,-0.10,8.75,2.22,0.56,1.21,-5.34,11.75,2.52,0.785,0.667,7.453
45115,22.319206,87.302436,11.89,0.97,-0.29,7.70,2.99,-1.48,2.02,4.06,-10.77,4.26,0.667,0.863,9.885
45246,22.319206,87.302436,11.89,0.90,0.27,6.92,5.51,-1.18,1.54,19.23,2.27,-3.67,0.549,0.981,8.120
45374,22.319206,87.302436,11.89,0.81,-0.30,6.78,6.35,-0.53,1.18,6.56,5.07,-2.80,0.667,0.785,9.061
45518,22.319206,87.302436,11.89,0.65,-0.58,7.19,0.62,-0.06,1.31,-39.81,3.29,0.90,0.471,0.824,9.611
45664,22.319206,87.302436,11.89,1.10,0.15,7.44,-1.31,-1.40,1.64,-13.23,-9.20,2.25,0.902,0.941,8.708
45869,22.319206,87.302436,11.89,0.91,-0.29,8.12,3.50,-1.38,0.89,23.46,0.11,-3.69,0.549,0.667,8.277
46072,22.319202,87.302398,11.89,0.84,0.48,8.43,0.49,-1.61,0.84,-14.82,-1.13,-0.23,0.745,0.981,7.924
46254,22.319202,87.302398,11.89,1.32,-0.40,7.90,-5.20,-2.47,0.68,-31.25,-4.74,-0.88,0.667,0.628,9.218
46349,22.319202,87.302398,11.89,1.20,-0.32,7.24,-1.37,0.08,1.16,40.34,26.92,5.06,0.471,0.588,8.277
46494,22.319202,87.302398,11.89,1.13,-0.98,8.45,1.22,-1.89,0.78,17.85,-13.58,-2.63,-0.196,0.549,7.100
46643,22.319202,87.302398,11.89,1.09,-0.66,8.45,-3.91,-2.16,0.89,-34.43,-1.84,0.72,0.549,0.745,7.924
46849,22.319202,87.302398,11.89,1.09,0.22,8.12,-0.81,-0.79,0.92,15.04,6.67,0.19,0.510,0.706,8.512
47039,22.319202,87.302398,11.89,0.81,-0.09,7.74,-3.65,-2.56,1.22,-14.95,-9.36,1.57,0.706,0.863,7.924
47230,22.319202,87.302398,11.89,0.89,0.14,8.36,-0.20,-2.95,0.90,18.06,-2.04,-1.68,0.549,0.941,9.689
47326,22.319202,87.302398,11.89,0.99,0.42,8.22,0.77,-2.65,0.87,10.10,3.18,-0.32,0.275,0.941,7.806
47470,22.319202,87.302398,11.89,1.07,-0.20,8.33,2.96,-1.40,0.54,15.21,8.64,-2.28,0.392,1.020,8.434
47616,22.319202,87.302398,11.89,1.26,-0.37,8.06,2.01,-0.31,0.44,-6.54,7.48,-0.68,0.353,1.412,8.434
47820,22.319202,87.302398,11.89,1.37,-1.55,6.82,6.60,-0.84,0.27,22.53,-2.58,-0.86,0.353,0.510,8.473
48024,22.319202,87.302398,11.89,1.59,-0.29,10.12,-1.86,-1.59,-0.11,-41.50,-3.67,-1.83,0.431,1.530,9.022
48215,22.319202,87.302398,11.89,1.91,0.57,7.50,-0.08,-2.86,0.26,9.35,-6.67,1.92,0.275,0.588,6.904
48311,22.319202,87.302398,11.89,1.18,-0.23,8.16,-2.62,-1.30,0.35,-26.48,16.30,0.95,0.353,0.706,9.061
48457,22.319202,87.302398,11.89,1.49,0.08,8.58,1.92,-3.34,0.05,31.11,-14.01,-2.09,0.824,0.902,8.669
48604,22.319202,87.302398,11.89,1.71,0.19,7.64,-1.77,-2.53,0.31,-25.13,5.50,1.77,-0.118,0.902,8.081
48809,22.319202,87.302398,11.89,1.37,-0.20,8.56,-0.08,-2.17,0.27,8.23,1.79,-0.19,0.510,0.863,7.688
49012,22.319202,87.302398,11.89,2.34,-0.13,9.03,-0.18,-2.36,0.35,-0.49,-0.94,0.41,-0.039,0.745,8.120
49202,22.319202,87.302398,11.89,0.98,-0.37,8.92,0.05,-1.74,0.18,1.21,3.25,-0.92,0.471,0.745,7.610
49300,22.319202,87.302398,11.89,1.35,-0.38,8.10,3.80,-1.06,-0.19,38.32,6.93,-3.74,0.235,0.706,8.159
49446,22.319202,87.302398,11.89,1.01,0.31,7.57,-5.87,-2.14,0.31,-66.24,-7.37,3.45,0.902,0.628,9.140
49593,22.319202,87.302398,11.89,1.14,0.25,7.25,-2.13,1.33,0.50,25.45,23.58,1.25,0.392,1.059,8.238
49796,22.319202,87.302398,11.89,1.40,-0.16,7.74,-2.31,-2.70,0.26,-0.86,-19.85,-1.17,0.471,0.628,9.101
50000,22.319202,87.302398,11.89,1.15,0.06,7.49,5.34,-0.76,1.37,37.46,9.50,5.46,0.628,0.745,6.904
50192,22.319202,87.302398,11.89,1.42,0.50,8.04,1.60,-2.03,1.16,-19.44,-6.60,-1.11,0.667,0.431,8.865
50293,22.319202,87.302398,11.89,1.38,-0.60,6.54,-1.79,2.11,1.63,-33.63,40.96,4.61,1.491,0.392,9.807
50440,22.319202,87.302398,11.89,1.06,0.84,7.31,1.27,-0.21,1.91,20.88,-15.79,1.92,0.941,1.098,8.512
50585,22.319202,87.302398,11.89,0.77,0.11,6.62,0.66,-1.44,1.39,-4.21,-8.42,-3.58,0.549,0.667,9.414
50790,22.319173,87.302223,14.43,0.97,-0.35,8.11,-1.85,2.95,1.82,-12.29,21.37,2.09,0.628,0.078,7.139
50991,22.319173,87.302223,14.43,0.83,-0.41,9.31,-8.61,-2.16,1.08,-33.61,-25.41,-3.68,0.039,1.608,8.787
51183,22.319173,87.302223,14.43,1.22,0.28,7.94,1.87,-1.06,0.76,54.59,5.73,-1.63,0.275,1.098,9.611
51282,22.319173,87.302223,14.43,0.72,-0.24,8.27,-2.24,-3.47,1.24,-41.56,-24.29,4.78,0.981,0.941,8.277
51431,22.319173,87.302223,14.43,1.41,-0.81,7.06,-0.21,-1.09,1.17,13.68,15.93,-0.46,0.667,0.863,8.787
51578,22.319173,87.302223,14.43,1.18,-0.50,7.93,3.52,-1.99,0.72,25.34,-6.13,-3.06,0.118,0.549,8.238
51782,22.319166,87.302185,13.87,1.20,-0.38,9.04,-3.66,-3.36,1.04,-35.21,-6.70,1.57,0.196,0.824,7.022
51976,22.319166,87.302185,13.87,1.22,0.23,7.79,-4.06,-4.02,1.08,-2.05,-3.38,0.24,0.000,0.314,7.453
52165,22.319166,87.302185,13.87,1.12,0.09,8.68,-4.10,-1.40,2.21,-0.20,13.85,5.94,0.941,1.177,8.865
52265,22.319166,87.302185,13.87,0.78,0.04,8.51,-2.26,-2.81,1.44,18.40,-14.12,-7.71,0.235,0.667,8.355
52413,22.319166,87.302185,13.87,0.92,-0.46,7.59,4.95,-2.68,1.37,48.69,0.88,-0.46,0.510,0.392,7.963
52558,22.319166,87.302185,13.87,1.67,0.03,7.97,4.82,-0.15,1.46,-0.89,17.48,0.63,0.157,0.588,7.806
52749,22.319166,87.302185,13.87,0.69,-1.07,8.42,5.92,-1.98,1.36,5.76,-9.63,-0.52,0.314,0.863,8.081
52948,22.319168,87.302154,12.17,1.16,0.10,8.02,-0.48,-0.87,1.91,-32.15,5.60,2.76,0.824,0.863,9.257
53139,22.319168,87.302154,12.17,0.47,-0.36,7.26,3.36,-3.46,0.83,20.10,-13.55,-5.64,0.275,0.941,8.591
53253,22.319168,87.302154,12.17,1.19,-0.39,6.92,-2.26,1.84,2.24,-49.28,46.47,12.39,0.510,1.138,8.708
53392,22.319168,87.302154,12.17,0.80,0.21,7.37,5.40,0.18,2.05,55.14,-11.92,-1.37,-0.235,0.549,8.944
53538,22.319168,87.302154,12.17,0.78,-0.58,7.89,1.66,-1.93,1.98,-25.62,-14.48,-0.52,0.196,0.902,9.218
53725,22.319168,87.302154,12.17,1.20,-0.63,8.17,0.14,-1.18,1.44,-8.16,4.00,-2.90,0.235,0.078,8.826
53931,22.319164,87.302116,14.19,0.75,0.50,7.82,0.28,-2.81,0.82,0.70,-7.89,-2.96,0.431,1.569,8.434
54120,22.319164,87.302116,14.19,1.05,0.18,7.34,2.78,-1.50,1.41,13.21,6.91,3.11,0.275,1.098,8.081
54250,22.319164,87.302116,14.19,1.16,0.45,7.75,0.02,-0.46,1.73,-21.20,8.04,2.47,0.353,0.745,8.669
54378,22.319164,87.302116,14.19,1.16,1.08,7.98,-2.06,-1.76,1.60,-16.28,-10.20,-1.01,0.118,0.510,8.748
54528,22.319164,87.302116,14.19,1.12,-0.08,7.44,-2.99,-3.03,1.73,-6.21,-8.45,0.81,0.863,0.588,8.708
54709,22.319164,87.302116,14.19,1.52,0.04,8.16,2.30,-1.08,1.75,29.23,10.75,0.13,0.471,0.941,9.179
54917,22.319164,87.302116,14.19,0.97,-0.36,8.72,0.52,-2.92,1.53,-8.55,-8.84,-1.06,0.118,1.216,7.963
55106,22.319164,87.302116,14.19,1.45,-0.92,8.55,3.54,-1.53,1.25,15.99,7.39,-1.45,0.863,0.431,7.688
55246,22.319164,87.302116,14.19,0.91,-0.39,7.63,-0.72,-3.11,1.68,-30.43,-11.34,3.05,0.588,0.549,9.101
55369,22.319164,87.302116,14.19,1.03,-0.15,7.97,0.17,-1.45,1.36,7.20,13.53,-2.61,0.078,0.863,7.767
55516,22.319164,87.302116,14.19,1.26,-0.15,9.03,-5.36,-1.66,1.80,-37.60,-1.40,3.01,0.706,0.588,7.728
55668,22.319164,87.302116,14.19,1.44,-0.37,9.19,3.59,-0.28,1.76,58.86,9.04,-0.25,0.314,0.824,8.865
55875,22.319164,87.302116,14.19,1.30,0.09,8.42,-4.12,-2.97,1.47,-37.25,-12.98,-1.40,0.863,0.941,7.728
56066,22.319164,87.302116,14.19,1.48,0.02,7.94,-3.04,-1.06,1.43,5.68,9.99,-0.24,0.510,0.785,8.002
56230,22.319164,87.302116,14.19,1.59,0.19,9.26,-2.75,-0.75,1.47,1.77,1.91,0.28,0.588,1.098,8.238
56323,22.319164,87.302116,14.19,1.34,-0.56,7.46,-2.26,-1.17,1.14,5.25,-4.51,-3.61,0.275,0.902,10.160
56470,22.319164,87.302116,14.19,1.20,-0.09,8.72,1.05,-2.46,1.08,22.49,-8.78,-0.42,0.549,0.941,7.610
56616,22.319164,87.302116,14.19,1.34,0.00,7.32,-5.39,-2.14,1.40,-44.08,2.20,2.20,0.706,0.863,9.218
56820,22.319164,87.302116,14.19,1.17,0.40,8.30,-0.71,-1.11,0.88,22.94,5.01,-2.54,0.235,0.745,8.904
57024,22.319164,87.302116,14.19,0.86,0.43,8.70,0.02,-2.98,1.63,3.59,-9.13,3.67,0.314,1.216,9.061
57214,22.319164,87.302116,14.19,1.69,0.07,7.67,-0.44,-1.24,1.56,-2.45,9.12,-0.32,0.706,0.628,8.551
57311,22.319164,87.302116,14.19,1.30,-0.70,8.27,-2.70,-0.64,1.61,-23.29,6.22,0.47,0.392,1.334,8.081
57457,22.319164,87.302116,14.19,1.09,-0.07,6.92,4.57,2.15,1.40,49.83,19.08,-1.46,1.098,1.334,8.787
57603,22.319164,87.302116,14.19,0.67,-0.10,7.27,-1.40,-2.03,1.11,-40.94,-28.60,-1.93,0.275,0.863,10.277
57812,22.319164,87.302116,14.19,0.91,0.69,8.15,-3.52,-1.34,1.08,-10.12,3.29,-0.18,1.334,1.255,8.904
58016,22.319164,87.302116,14.19,0.50,0.52,8.21,-0.31,-1.24,2.03,15.75,0.52,4.68,0.275,0.706,9.532
58207,22.319164,87.302116,14.19,1.28,-0.04,9.52,-1.26,0.47,1.68,-5.00,8.91,-1.84,0.549,0.785,9.257
58303,22.319164,87.302116,14.19,0.53,-0.41,8.33,2.45,-3.95,1.43,38.65,-46.04,-2.62,-0.353,0.745,9.650
58451,22.319164,87.302116,14.19,1.35,0.08,7.49,-1.64,-0.76,1.50,-27.65,21.56,0.46,0.588,0.863,9.140
58598,22.319164,87.302116,14.19,0.71,-0.55,7.24,-2.96,1.99,2.12,-8.98,18.75,4.26,-0.157,0.863,9.179
58804,22.319164,87.302116,14.19,0.43,-0.74,8.63,-0.09,-1.87,1.70,13.93,-18.75,-2.04,0.745,0.667,8.865
59009,22.319164,87.302116,14.19,0.91,0.86,8.54,-0.11,-2.86,1.33,-0.11,-4.84,-1.82,0.157,1.373,9.061
59198,22.319164,87.302116,14.19,1.47,-0.85,7.32,-1.44,2.78,2.17,-6.99,29.85,4.44,-0.039,0.510,10.356
59300,22.319164,87.302116,14.19,0.59,0.89,7.86,4.98,-1.73,2.45,62.94,-44.23,2.77,0.392,0.000,8.198
59445,22.319164,87.302116,14.19,0.77,0.04,8.40,-6.28,-6.26,2.03,-77.70,-31.22,-2.90,0.431,0.549,7.924
59594,22.319164,87.302116,14.19,0.51,0.06,8.07,0.46,-1.50,2.31,45.24,31.92,1.84,0.902,0.863,7.806
59797,22.319164,87.302116,14.19,0.92,0.79,7.94,3.03,-1.34,2.31,12.67,0.83,0.00,0.510,0.588,8.002
59999,22.319164,87.302116,14.19,0.96,-0.61,8.25,4.99,-2.21,2.08,9.71,-4.31,-1.13,0.353,0.824,7.728
60190,22.319164,87.302116,14.19,0.86,-0.57,8.29,0.97,1.95,2.95,-21.06,21.78,4.60,0.039,1.020,8.787
60291,22.319164,87.302116,14.19,0.74,-0.07,7.55,2.04,-2.35,2.79,10.58,-42.63,-1.59,0.353,0.824,8.591
60438,22.319164,87.302116,14.19,1.61,-0.01,8.31,8.19,-4.15,2.08,41.85,-12.26,-4.83,0.510,0.039,6.433
60585,22.319164,87.302116,14.19,0.80,1.23,8.86,-7.97,-3.44,4.06,-109.93,4.88,13.45,0.588,0.588,8.708
60792,22.319164,87.302116,14.19,0.51,0.19,7.45,-4.50,-4.27,4.67,16.74,-4.02,2.95,0.863,0.981,10.709
60995,22.319164,87.302116,14.19,0.38,0.22,7.02,6.01,-1.98,4.05,51.78,11.28,-3.08,-0.157,0.235,8.394
61187,22.319164,87.302116,14.19,0.04,0.73,9.83,-10.68,-1.18,4.20,-86.91,4.13,0.80,0.392,0.667,7.924
61287,22.319164,87.302116,14.19,0.56,-0.31,7.13,-2.74,1.41,4.87,79.39,25.95,6.72,0.275,0.235,6.786
61432,22.319164,87.302116,14.19,0.57,-0.48,10.40,-5.27,-3.18,4.18,-17.43,-31.64,-4.79,0.549,0.588,7.139
61583,22.319164,87.302116,14.19,1.18,0.78,5.47,-0.68,0.48,3.76,30.38,24.22,-2.73,0.510,0.431,10.277
61788,22.319164,87.302116,14.19,0.59,0.36,4.77,0.91,-4.07,3.37,7.75,-22.19,-1.94,1.530,0.941,10.042
61988,22.319164,87.302116,14.19,0.29,0.70,7.56,0.40,-1.44,3.13,-2.56,13.13,-1.18,0.157,0.745,7.688
62179,22.319164,87.302116,14.19,0.77,0.13,8.78,-4.42,-3.02,3.45,-25.22,-8.23,1.68,0.039,0.510,9.179
62281,22.319164,87.302116,14.19,1.03,-0.12,7.40,2.39,-0.19,3.38,66.76,27.69,-0.67,0.667,0.510,9.179
62427,22.319164,87.302116,14.19,0.80,-0.71,7.95,10.48,-0.81,2.95,55.42,-4.24,-2.93,0.039,1.020,9.022
62574,22.319164,87.302116,14.19,0.91,0.67,8.37,-2.52,-4.21,4.18,-88.44,-23.16,8.31,0.941,0.471,8.198
62781,22.319053,87.301742,14.82,1.61,-1.01,7.19,5.17,-4.03,2.48,37.14,0.89,-8.19,0.431,1.020,7.963
62981,22.319053,87.301742,14.82,1.02,0.05,9.36,-0.72,-1.38,2.96,-29.43,13.24,2.40,0.431,0.785,9.611
63173,22.319053,87.301742,14.82,0.56,0.67,7.76,-0.85,-0.60,3.87,-0.72,4.06,4.73,-0.118,1.216,8.394
63273,22.319053,87.301742,14.82,0.87,-0.34,7.60,2.01,-0.51,2.61,28.63,0.92,-12.60,0.588,0.941,9.611
63420,22.319053,87.301742,14.82,0.55,-0.50,7.07,4.51,1.11,3.26,17.03,11.06,4.41,0.667,0.235,7.649
63564,22.319053,87.301742,14.82,0.95,-0.12,8.29,-5.56,-2.86,2.72,-69.97,-27.62,-3.76,1.020,0.392,9.061
63770,22.319053,87.301742,14.82,1.60,-0.86,8.76,1.04,-2.96,1.75,32.05,-0.48,-4.71,0.157,0.588,6.669
63965,22.319042,87.301696,15.58,0.88,-0.57,8.53,6.55,-1.79,2.73,28.26,6.03,5.05,1.098,0.314,8.198
64155,22.319042,87.301696,15.58,1.20,-0.34,7.98,-1.34,-1.76,2.30,-41.50,0.16,-2.29,1.059,0.431,8.081
64258,22.319042,87.301696,15.58,0.79,-0.86,8.42,0.33,-1.66,2.46,16.16,0.96,1.56,0.824,0.667,8.081
64402,22.319042,87.301696,15.58,1.41,-0.38,8.41,-3.62,-2.09,2.49,-27.41,-3.02,0.21,0.941,0.118,8.512
64549,22.319042,87.301696,15.58,0.98,-1.07,8.26,-0.62,-3.78,2.58,20.41,-11.48,0.62,0.863,0.745,8.394
64750,22.319042,87.301696,15.58,1.10,-0.23,8.13,-1.50,-1.79,2.50,-4.37,9.87,-0.42,1.020,0.745,8.238
64942,22.319019,87.301658,16.48,1.10,-0.91,10.95,-0.41,-1.10,2.30,5.65,3.62,-1.03,0.667,0.824,8.748
65132,22.319019,87.301658,16.48,1.20,-0.40,7.83,1.67,-3.90,2.57,10.97,-14.74,1.45,0.785,0.941,8.081
65239,22.319019,87.301658,16.48,0.65,-0.52,6.65,-3.80,-0.16,3.18,-51.15,34.96,5.71,0.824,0.902,9.375
65381,22.319019,87.301658,16.48,1.44,-0.71,9.11,4.08,-3.48,2.94,55.53,-23.38,-1.72,1.255,0.941,8.630
65528,22.319019,87.301658,16.48,1.49,-0.58,8.48,-3.26,-2.53,2.53,-49.96,6.44,-2.80,0.981,0.588,8.198
65713,22.319019,87.301658,16.48,1.31,-1.05,9.81,-7.89,-3.37,2.40,-25.05,-4.54,-0.70,0.745,0.353,7.610
65921,22.319011,87.301635,10.41,1.90,-0.67,9.28,-3.62,-2.14,0.88,20.55,5.95,-7.30,0.628,0.863,8.277
66112,22.319011,87.301635,10.41,1.71,-0.21,8.54,-2.99,-2.93,0.15,3.28,-4.16,-3.80,0.981,1.177,8.002
66240,22.319011,87.301635,10.41,1.65,-0.42,6.98,1.69,-2.23,-0.21,36.62,5.49,-2.86,0.628,0.902,8.159
66372,22.319011,87.301635,10.41,0.97,-0.80,8.93,0.05,-1.40,0.50,-12.49,6.30,5.44,0.863,0.549,7.806
66518,22.319011,87.301635,10.41,1.33,-0.22,8.03,1.79,-1.95,0.65,11.92,-3.82,0.99,0.588,1.020,9.532
66698,22.319011,87.301635,10.41,1.12,-0.34,6.67,11.46,0.69,0.53,53.73,14.72,-0.68,1.098,1.059,5.962
66906,22.319011,87.301635,10.41,1.33,-1.28,8.03,-13.52,1.06,3.01,-120.08,1.76,11.93,0.000,0.431,9.728
67099,22.319011,87.301635,10.41,1.21,-0.33,10.25,2.24,-0.60,2.50,81.64,-8.62,-2.61,2.236,0.628,9.493
67237,22.319011,87.301635,10.41,1.58,-1.49,8.70,-12.21,-1.51,3.31,-104.66,-6.58,5.86,1.608,0.824,8.120
67363,22.319011,87.301635,10.41,0.73,-0.14,6.27,-3.73,-0.76,2.36,67.31,6.00,-7.57,0.078,1.098,6.825
67510,22.319011,87.301635,10.41,1.14,0.13,5.98,10.04,-2.96,1.09,93.63,-15.01,-8.62,1.177,0.785,10.317
67659,22.319011,87.301635,10.41,0.87,-0.72,9.38,-6.07,-5.33,1.37,-108.10,-15.88,1.84,0.235,0.941,8.081
67867,22.319011,87.301635,10.41,1.71,0.54,8.27,5.76,-8.64,0.85,56.88,-15.93,-2.50,0.353,1.451,8.002
68059,22.319011,87.301635,10.41,1.30,-0.40,7.31,0.33,0.16,2.64,-28.31,45.84,9.34,0.706,1.138,9.257
68227,22.319011,87.301635,10.41,0.62,0.49,7.13,-3.57,0.10,3.58,-23.22,-0.36,5.59,-0.314,0.941,7.649
68320,22.319011,87.301635,10.41,0.76,0.06,8.91,-1.23,-2.05,2.95,25.20,-23.06,-6.73,-0.353,0.745,8.669
68468,22.319011,87.301635,10.41,1.04,0.60,9.01,0.47,-2.92,3.06,11.50,-5.88,0.72,-0.078,0.745,7.061
68614,22.319011,87.301635,10.41,1.58,0.20,9.92,-3.40,-2.08,3.11,-26.51,5.75,0.37,0.157,0.431,7.061
68817,22.319011,87.301635,10.41,0.56,-0.46,8.61,-0.55,-1.66,2.66,14.03,2.03,-2.26,-0.039,0.745,8.904
69022,22.319011,87.301635,10.41,0.51,0.06,8.22,-1.68,-1.11,3.47,-5.51,2.72,3.95,0.392,0.549,7.963
69213,22.319011,87.301635,10.41,1.06,0.22,8.62,-3.88,-3.50,2.92,-11.51,-12.51,-2.88,0.039,0.628,9.728
69312,22.319011,87.301635,10.41,1.10,-0.49,8.15,-2.54,-0.58,3.54,13.49,29.45,6.32,0.353,0.824,8.669
69458,22.319011,87.301635,10.41,1.10,-0.40,6.82,-1.39,1.09,3.64,7.90,11.45,0.68,0.078,0.667,8.708
69603,22.319011,87.301635,10.41,1.30,-0.00,7.66,-1.06,-3.03,3.72,2.26,-28.43,0.53,0.353,1.098,7.688
69808,22.319011,87.301635,10.41,0.94,0.07,8.71,1.20,-2.33,3.06,11.02,3.43,-3.20,0.863,0.863,8.551
70011,22.319011,87.301635,10.41,1.34,-0.15,8.10,2.52,-2.31,3.67,6.51,0.08,3.01,0.667,0.039,7.885
70202,22.319011,87.301635,10.41,1.17,0.09,8.53,-0.73,-1.09,3.48,-16.99,6.39,-1.00,1.334,0.902,8.787
70300,22.319011,87.301635,10.41,1.39,0.95,7.56,-1.26,-0.50,3.44,-5.45,6.08,-0.39,0.706,0.745,8.551
70446,22.319011,87.301635,10.41,0.96,-0.60,6.74,10.30,-3.23,2.67,79.16,-18.72,-5.28,1.020,0.039,8.787
70594,22.319011,87.301635,10.41,1.10,-1.30,8.29,-6.92,-6.90,2.57,-116.36,-24.81,-0.67,1.177,1.255,7.532
70804,22.319011,87.301635,10.41,1.27,-0.16,9.06,2.40,3.31,2.73,44.38,48.64,0.76,0.314,0.706,7.806
71009,22.319011,87.301635,10.41,0.89,-1.08,10.11,1.19,0.53,2.02,-5.88,-13.59,-3.50,0.196,0.549,8.394
71199,22.319011,87.301635,10.41,1.28,-0.11,10.33,-4.12,-3.16,2.16,-27.96,-19.41,0.76,0.863,0.628,10.238
71304,22.319011,87.301635,10.41,0.84,0.35,7.66,-2.88,-5.40,2.63,11.85,-21.37,4.51,1.765,1.255,8.669
71449,22.319011,87.301635,10.41,1.11,-0.41,5.72,4.53,0.91,2.84,51.07,43.54,1.42,1.608,1.216,9.571
71595,22.319011,87.301635,10.41,1.93,0.69,8.14,0.76,-4.44,2.39,-25.83,-36.65,-3.08,0.628,0.902,10.238
71801,22.319011,87.301635,10.41,1.44,0.44,6.90,1.30,-3.69,2.28,2.63,3.67,-0.52,-0.157,1.334,10.042
72005,22.319011,87.301635,10.41,0.10,0.61,10.04,-12.04,6.85,2.10,-65.37,51.64,-0.90,0.824,1.020,9.336
72197,22.319011,87.301635,10.41,0.95,-0.53,7.09,6.92,-0.40,2.47,98.72,-37.73,1.91,1.412,1.648,8.198
72298,22.319011,87.301635,10.41,1.09,-0.57,7.81,7.76,-0.81,1.71,8.39,-4.08,-7.48,0.941,1.530,9.218
72442,22.319011,87.301635,10.41,1.10,-0.61,7.86,3.89,-2.09,1.63,-26.93,-8.91,-0.58,0.314,1.216,9.571
72591,22.319011,87.301635,10.41,1.40,0.09,9.08,-6.83,-0.49,2.86,-71.93,10.76,8.30,1.138,1.098,8.826
72796,22.319011,87.301635,10.41,1.40,0.63,7.14,6.63,-4.02,2.50,65.69,-17.24,-1.75,0.628,0.824,10.081
73001,22.319011,87.301635,10.41,0.87,-1.33,6.60,0.58,1.27,2.71,-29.53,25.81,1.01,0.353,0.824,7.571
73193,22.319011,87.301635,10.41,0.88,-0.65,9.25,0.00,-0.42,1.55,-3.02,-8.79,-6.04,-0.196,0.706,7.571
73294,22.319011,87.301635,10.41,1.13,-0.06,9.18,-0.74,-1.91,2.63,-7.33,-14.74,10.66,0.000,0.628,6.629
73443,22.319011,87.301635,10.41,0.51,-0.40,7.12,2.68,2.63,1.58,22.95,30.48,-7.02,-0.510,0.981,7.375
73589,22.319011,87.301635,10.41,1.35,0.38,8.65,2.18,-0.18,2.16,-3.45,-19.29,3.97,0.471,0.392,8.551
73794,22.319011,87.301635,10.41,1.69,0.69,8.82,-2.24,-3.87,1.29,-21.56,-17.99,-4.25,0.196,0.431,8.669
73999,22.319011,87.301635,10.41,0.65,-0.15,8.37,3.08,2.36,2.19,25.99,30.39,4.39,-0.118,0.353,8.238
74190,22.319011,87.301635,10.41,1.08,-0.12,8.12,-2.73,-0.25,2.45,-30.41,-13.67,1.36,-0.392,1.020,7.688
74291,22.319011,87.301635,10.41,0.74,-0.12,8.58,1.66,0.34,2.02,43.46,5.82,-4.23,-0.314,0.353,8.787
74436,22.319011,87.301635,10.41,1.26,-0.93,9.47,-8.40,-4.19,2.56,-69.44,-31.22,3.69,0.471,0.981,7.257
74585,22.319011,87.301635,10.41,1.65,0.79,8.03,4.85,1.66,1.46,88.99,39.24,-7.38,0.353,0.392,7.296
74787,22.319011,87.301635,10.41,0.63,-0.89,8.91,2.91,-0.94,0.89,-9.64,-12.85,-2.80,0.863,0.510,6.433
74989,22.319011,87.301635,10.41,1.48,0.71,10.69,-8.72,-4.14,0.29,-57.55,-15.83,-2.99,-0.118,0.902,8.041
75182,22.319011,87.301635,10.41,1.10,1.00,7.95,5.73,-2.03,1.30,74.83,10.92,5.22,0.235,0.471,8.551
75281,22.319011,87.301635,10.41,0.95,1.09,6.88,-6.54,-0.15,2.18,-123.91,18.97,8.94,-0.392,0.314,6.237
75429,22.319011,87.301635,10.41,0.59,-0.97,11.53,-2.07,-9.27,1.91,30.22,-61.58,-1.86,0.785,0.863,6.786
75579,22.319011,87.301635,10.41,1.73,-0.55,5.34,16.11,0.20,0.25,121.22,63.10,-11.04,-0.078,1.098,9.375
75787,22.319011,87.301635,10.41,0.70,0.61,9.22,0.83,-2.42,1.53,-73.47,-12.59,6.17,0.863,1.412,9.140
75990,22.319011,87.301635,10.41,0.97,-0.17,6.44,0.09,-1.59,1.79,-3.65,4.10,1.28,0.157,0.824,5.688
76180,22.319011,87.301635,10.41,1.52,-0.84,7.27,9.31,0.05,1.89,48.53,8.60,0.48,-0.392,0.667,10.513
76280,22.319011,87.301635,10.41,0.88,0.03,6.95,4.34,0.67,1.21,-49.69,6.26,-6.72,0.353,0.471,8.473
76425,22.319011,87.301635,10.41,1.78,-0.34,9.07,-6.26,-2.91,2.22,-73.12,-24.69,6.95,1.451,0.941,8.238
76573,22.319011,87.301635,10.41,0.76,-0.48,8.54,-0.57,-3.83,0.95,38.43,-6.24,-8.61,1.334,0.902,9.885
76779,22.318914,87.301399,9.32,0.93,-0.70,9.53,-3.29,-2.49,2.31,-13.19,6.52,6.60,1.294,0.981,9.297
76979,22.318914,87.301399,9.32,0.81,0.19,6.47,-1.33,-3.20,3.03,9.81,-3.55,3.63,0.235,1.177,9.218
77169,22.318914,87.301399,9.32,0.80,0.17,8.40,-1.15,-0.56,3.67,0.92,13.86,3.37,1.059,1.020,9.650
77267,22.318914,87.301399,9.32,1.08,0.33,7.30,1.76,-1.48,2.84,29.68,-9.35,-8.49,0.981,0.824,5.884
77411,22.318914,87.301399,9.32,1.45,-0.23,9.93,3.51,-3.21,3.26,12.19,-12.03,2.92,0.314,0.588,7.688
77557,22.318914,87.301399,9.32,1.16,0.42,9.06,3.32,-3.69,3.75,-1.31,-3.29,3.35,1.334,0.628,9.140
77755,22.318914,87.301399,9.32,1.31,0.76,7.32,2.29,-0.52,4.18,-5.20,16.04,2.16,0.431,0.314,6.512
77949,22.318895,87.301368,9.80,0.22,-0.41,9.26,-4.92,-0.44,3.50,-37.14,0.39,-3.46,-0.196,0.667,9.689
78140,22.318895,87.301368,9.80,1.28,-0.69,5.16,3.75,-0.37,3.57,45.36,0.36,0.36,0.510,0.431,10.474
78239,22.318895,87.301368,9.80,0.83,-1.02,9.86,1.35,-2.23,3.49,-24.21,-18.74,-0.85,0.000,0.314,8.904
78387,22.318895,87.301368,9.80,1.43,1.41,6.28,2.98,-3.75,3.15,11.04,-10.26,-2.27,0.588,0.745,12.003
78533,22.318895,87.301368,9.80,0.18,0.23,5.88,2.31,-5.04,3.39,-4.65,-8.84,1.62,0.588,0.863,9.022
78715,22.318895,87.301368,9.80,0.69,0.63,6.72,-6.56,-0.72,5.43,-48.74,23.74,11.20,1.726,0.510,7.571
78922,22.318878,87.301345,7.91,0.97,0.56,8.10,-8.31,2.92,4.89,-8.41,17.59,-2.58,0.275,0.588,9.414
79111,22.318878,87.301345,7.91,0.48,0.45,7.88,11.95,-1.46,2.66,107.19,-23.18,-11.79,0.706,-0.275,8.316
79235,22.318878,87.301345,7.91,0.40,0.19,9.04,0.83,-3.78,2.69,-89.69,-18.71,0.18,0.981,0.824,8.473
79373,22.318878,87.301345,7.91,0.56,0.76,8.28,-0.31,-4.08,3.31,-8.30,-2.16,4.54,0.588,1.098,6.904
79517,22.318878,87.301345,7.91,1.19,-0.02,6.53,-3.37,0.98,4.33,-21.26,35.09,7.05,0.431,0.588,6.551
79698,22.318878,87.301345,7.91,0.75,-0.32,8.77,-6.23,-7.71,3.54,-15.77,-47.99,-4.34,1.020,1.412,9.571
79905,22.318878,87.301345,7.91,0.94,0.74,5.11,6.74,3.73,4.56,62.65,55.24,4.94,0.588,1.098,9.414
80095,22.318878,87.301345,7.91,0.54,-0.77,7.40,-1.50,-1.61,4.92,-43.39,-28.08,1.89,-0.235,0.431,9.611
80236,22.318878,87.301345,7.91,0.82,-0.13,8.48,-0.73,-1.98,3.79,5.47,-2.60,-8.07,0.785,0.863,8.002
80355,22.318878,87.301345,7.91,0.63,-0.31,7.02,-4.82,-1.89,3.96,-34.38,0.71,1.48,0.863,-0.118,8.512
80501,22.318878,87.301345,7.91,1.48,-0.41,9.77,2.42,-2.30,3.24,49.62,-2.77,-4.97,0.588,1.059,7.806
80647,22.318878,87.301345,7.91,1.27,-1.16,9.37,-1.84,-0.47,3.28,-29.17,12.55,0.31,-0.353,0.902,9.375
80854,22.318878,87.301345,7.91,0.75,-0.23,6.50,0.53,-1.98,3.16,11.43,-7.34,-0.59,0.431,1.216,7.414
81043,22.318878,87.301345,7.91,1.13,-0.51,9.08,-1.89,-3.81,2.40,-12.76,-9.65,-4.04,0.745,1.451,9.179
81220,22.318878,87.301345,7.91,0.70,-0.91,8.83,4.21,-1.23,2.15,34.46,14.58,-1.38,-0.196,1.373,10.199
81314,22.318878,87.301345,7.91,1.33,-0.89,6.74,0.59,1.28,2.87,-38.57,26.72,7.63,0.353,0.863,9.140
81459,22.318878,87.301345,7.91,0.75,0.20,8.11,-0.64,0.45,2.57,-8.48,-5.74,-2.05,0.118,1.098,9.061
81603,22.318878,87.301345,7.91,1.15,0.13,7.49,3.18,-1.69,2.58,26.56,-14.84,0.05,0.431,1.412,9.179
81806,22.318878,87.301345,7.91,0.58,-0.82,7.66,6.14,-2.75,2.82,14.55,-5.23,1.17,1.177,0.431,7.806
82009,22.318878,87.301345,7.91,1.25,-0.67,9.38,-13.74,0.14,3.17,-97.92,14.21,1.73,0.745,0.824,9.375
82200,22.318878,87.301345,7.91,0.54,0.34,5.91,-0.56,1.74,2.80,68.98,8.39,-1.92,0.000,1.569,9.061
82294,22.318878,87.301345,7.91,0.42,-0.07,8.59,-7.30,-3.08,3.34,-71.63,-51.32,5.77,0.588,0.981,8.630
82441,22.318878,87.301345,7.91,1.37,-0.11,7.69,0.40,-2.18,2.87,52.34,6.18,-3.22,0.981,0.510,6.865
82586,22.318878,87.301345,7.91,0.57,0.07,9.20,-4.02,-4.21,2.79,-30.48,-14.00,-0.58,0.863,0.353,8.904
82792,22.318878,87.301345,7.91,0.65,0.42,8.08,-2.73,-2.71,2.77,6.26,7.26,-0.07,0.628,0.941,8.473
82995,22.318878,87.301345,7.91,1.31,0.11,8.71,-6.82,-0.27,3.21,-20.16,12.03,2.14,0.628,1.098,8.865
83185,22.318878,87.301345,7.91,0.38,0.49,9.12,-3.27,-4.75,3.10,18.72,-23.58,-0.56,-0.078,0.588,9.375
83287,22.318878,87.301345,7.91,1.95,-0.01,5.64,-0.39,3.65,3.11,28.21,82.32,0.07,0.628,0.941,8.277
83431,22.318878,87.301345,7.91,0.20,-0.54,9.76,-5.56,-3.80,2.39,-35.89,-51.74,-4.98,-0.039,0.745,8.159
83580,22.318878,87.301345,7.91,0.86,0.27,7.20,-0.40,-1.80,2.27,34.63,13.42,-0.77,0.510,0.981,8.865
83784,22.318878,87.301345,7.91,1.54,-0.63,5.30,0.71,-3.29,2.15,5.43,-7.30,-0.60,0.745,0.706,8.826
83986,22.318878,87.301345,7.91,0.61,0.68,8.04,0.24,0.84,1.74,-2.34,20.44,-2.04,0.941,1.138,6.629
84173,22.318878,87.301345,7.91,1.38,-0.37,8.24,3.64,-1.40,1.50,18.21,-11.96,-1.31,0.667,0.549,7.492
84276,22.318878,87.301345,7.91,1.41,-0.05,7.64,-0.18,-0.11,1.82,-37.13,12.45,3.11,1.059,0.745,7.728
84421,22.318878,87.301345,7.91,1.50,-0.95,8.58,0.26,-0.95,1.38,3.05,-5.74,-3.00,0.549,0.824,8.983
84566,22.318878,87.301345,7.91,1.99,0.20,8.92,0.76,-5.17,1.25,3.47,-29.11,-0.89,0.706,0.510,8.002
84767,22.318721,87.301231,8.80,1.45,-0.15,7.62,0.97,-2.12,1.76,1.03,15.15,2.51,0.275,1.138,9.179
84963,22.318721,87.301231,8.80,0.95,-0.33,6.35,10.59,-2.85,1.78,49.07,-3.74,0.12,0.353,0.902,9.336
85153,22.318721,87.301231,8.80,1.45,-0.67,6.27,8.17,-1.50,1.37,-12.74,7.11,-2.13,0.824,0.588,9.414
85254,22.318721,87.301231,8.80,0.53,-0.52,7.02,-1.50,-3.05,1.40,-95.76,-15.34,0.30,0.785,1.726,8.944
85401,22.318721,87.301231,8.80,1.31,-0.33,7.87,4.24,-1.12,2.12,39.05,13.14,4.88,0.353,0.824,10.630
85547,22.318721,87.301231,8.80,1.35,-0.60,7.87,1.15,-0.87,2.84,-21.18,1.73,4.91,0.902,0.628,8.355
85744,22.318721,87.301231,8.80,1.48,-0.31,7.32,4.45,0.00,2.44,16.78,4.42,-2.05,0.392,0.706,9.375
85936,22.318674,87.301185,13.96,1.11,-0.52,8.44,-4.86,-1.37,1.73,-48.51,-7.12,-3.70,0.431,0.902,8.355
86126,22.318674,87.301185,13.96,2.05,0.05,7.78,1.69,-1.34,2.39,34.47,0.12,3.50,0.667,0.941,7.335
86232,22.318674,87.301185,13.96,1.65,0.49,7.88,0.53,0.08,2.65,-10.87,13.39,2.45,0.941,1.059,9.140
86369,22.318674,87.301185,13.96,1.70,0.06,7.57,-4.09,-1.46,3.05,-33.77,-11.20,2.95,0.471,1.334,8.002
86517,22.318674,87.301185,13.96,2.04,-0.18,8.66,-7.41,1.03,2.46,-22.44,16.81,-4.02,0.471,0.706,8.512
86700,22.318674,87.301185,13.96,1.31,0.31,6.60,-0.92,-1.13,3.43,35.50,-11.80,5.30,0.667,0.941,8.630
86907,22.318632,87.301147,14.70,1.22,-1.20,8.97,-1.31,1.29,3.00,-1.88,11.69,-2.07,-0.157,0.902,6.943
87098,22.318632,87.301147,14.70,1.23,-0.47,9.99,-0.60,0.54,2.51,3.72,-3.92,-2.56,0.549,1.059,8.277
87233,22.318632,87.301147,14.70,0.87,-1.13,8.10,0.48,-0.80,2.40,7.97,-9.95,-0.79,0.275,0.706,7.061
87357,22.318632,87.301147,14.70,0.43,-1.03,8.55,0.05,-3.13,2.27,-3.45,-18.78,-1.05,-0.275,1.373,7.335
87505,22.318632,87.301147,14.70,1.02,-0.30,9.97,-2.32,-1.51,2.67,-16.04,10.93,2.68,0.549,1.059,9.022
87688,22.318632,87.301147,14.70,1.01,-0.23,8.52,2.15,-2.30,2.00,24.40,-4.30,-3.67,0.275,0.667,8.355
87894,22.318592,87.301116,15.69,1.79,-0.71,9.35,-3.56,-1.13,2.30,-27.72,5.67,1.45,0.039,0.902,6.943
88085,22.318592,87.301116,15.69,1.82,-0.88,8.57,1.85,-0.17,2.24,28.34,5.04,-0.28,0.118,1.412,7.845
88246,22.318592,87.301116,15.69,2.04,-0.89,8.93,-0.49,-1.88,2.21,-14.51,-10.62,-0.24,0.549,0.981,8.159
88348,22.318592,87.301116,15.69,0.95,-0.04,8.73,-2.76,-1.96,2.15,-22.23,-0.82,-0.52,0.157,0.628,8.120
88498,22.318592,87.301116,15.69,1.25,0.36,7.23,-0.63,-1.89,2.04,14.20,0.51,-0.76,0.157,1.373,8.983
88643,22.318592,87.301116,15.69,1.14,-0.45,8.01,-3.63,0.44,2.76,-20.74,16.06,4.95,-0.078,1.098,7.257
88849,22.318592,87.301116,15.69,0.78,-0.21,8.38,1.34,1.37,2.84,24.12,4.52,0.41,0.706,1.177,9.022
89039,22.318592,87.301116,15.69,1.41,-0.13,7.97,4.05,0.21,1.95,14.26,-6.15,-4.66,0.314,0.824,7.806
89230,22.318592,87.301116,15.69,1.30,-0.55,7.90,-1.90,-0.45,1.95,-31.13,-3.44,0.00,0.118,0.902,9.061
89328,22.318592,87.301116,15.69,1.40,-0.16,8.02,-1.31,-1.15,2.21,6.00,-7.09,2.65,0.549,0.863,8.355
89474,22.318592,87.301116,15.69,0.94,-0.49,8.30,-3.16,-3.72,2.06,-12.65,-17.62,-1.05,0.471,0.863,9.257
89623,22.318592,87.301116,15.69,1.31,0.46,7.81,1.89,-1.02,1.67,33.92,18.08,-2.61,0.549,0.863,9.297
89827,22.318592,87.301116,15.69,1.06,0.51,8.53,-1.68,-1.74,1.85,-17.51,-3.52,0.90,0.314,0.785,7.649
90031,22.318525,87.301055,15.69,1.33,-0.75,7.33,2.64,1.02,1.30,21.18,13.51,-2.73,0.824,0.824,8.512
90222,22.318525,87.301055,15.69,0.41,0.32,6.65,-3.02,-2.73,1.84,-29.66,-19.62,2.84,0.471,1.451,10.120
90321,22.318525,87.301055,15.69,1.16,-0.74,8.96,-2.08,-0.71,1.41,9.48,20.43,-4.32,-0.196,0.824,5.962
90469,22.318525,87.301055,15.69,1.26,-0.40,9.36,-4.53,-5.54,1.33,-16.56,-32.65,-0.57,0.510,0.667,8.316
90618,22.318525,87.301055,15.69,1.48,-0.39,8.44,3.58,0.10,2.11,54.46,37.86,5.23,0.902,1.255,8.120
90821,22.318525,87.301055,15.69,0.52,-0.10,9.53,0.05,-2.21,2.01,-17.37,-11.36,-0.49,1.177,0.824,8.904
91026,22.318492,87.301048,15.69,0.88,0.43,7.25,0.76,-1.69,1.21,3.43,2.53,-3.87,0.157,0.981,9.571
91215,22.318492,87.301048,15.69,1.26,-0.97,7.30,0.48,0.11,2.53,-1.45,9.49,6.99,0.118,1.255,8.434
91313,22.318492,87.301048,15.69,1.05,-0.34,7.27,3.99,-0.29,2.11,35.83,-4.05,-4.28,0.667,0.863,8.512
91459,22.318492,87.301048,15.69,0.98,-0.12,8.96,0.02,-2.51,1.98,-27.24,-15.21,-0.89,0.510,0.431,8.551
91608,22.318492,87.301048,15.69,1.65,0.96,7.81,2.47,-0.40,2.40,16.45,14.19,2.77,0.078,1.098,7.806
91810,22.318492,87.301048,15.69,1.49,0.13,7.87,-0.95,-2.98,2.06,-16.89,-12.81,-1.66,0.314,0.824,8.748
92015,22.318492,87.301048,15.69,1.23,0.10,8.21,1.80,-0.36,2.80,13.41,12.81,3.61,0.588,0.588,8.041
92207,22.318492,87.301048,15.69,1.01,-0.49,8.08,0.56,-2.58,2.54,-6.48,-11.57,-1.35,0.667,0.588,9.022
92309,22.318492,87.301048,15.69,0.78,0.12,8.08,-2.92,-3.43,3.11,-34.13,-8.31,5.61,0.902,0.588,8.238
92454,22.318492,87.301048,15.69,0.84,-0.66,7.02,1.91,0.05,2.66,33.32,23.95,-3.16,0.314,0.196,9.571
92600,22.318492,87.301048,15.69,0.60,0.37,7.37,-9.79,-4.61,2.86,-80.10,-31.89,1.41,0.392,0.706,6.747
92807,22.318492,87.301048,15.69,1.77,-0.12,8.41,2.76,1.33,3.35,60.59,28.69,2.36,1.020,0.667,10.630
93012,22.318492,87.301048,15.69,0.77,-0.54,7.27,-3.88,-0.80,2.58,-32.36,-10.39,-3.76,1.216,0.981,8.708
93204,22.318492,87.301048,15.69,0.83,-0.15,7.68,1.90,-3.19,1.43,30.10,-12.44,-6.00,0.863,0.981,8.826
93306,22.318492,87.301048,15.69,1.30,-0.01,5.29,-1.24,0.76,2.95,-30.76,38.69,14.89,1.216,0.745,8.551
93454,22.318492,87.301048,15.69,1.20,-0.94,6.60,3.11,2.55,2.02,29.35,12.12,-6.29,0.510,0.706,10.042
93600,22.318492,87.301048,15.69,0.43,-0.37,8.90,-1.41,-3.44,2.96,-30.95,-41.04,6.48,0.706,0.314,7.845
93807,22.318492,87.301048,15.69,1.57,-0.36,9.18,-0.34,-3.05,1.50,5.16,1.92,-7.08,-0.235,0.981,8.277
94011,22.318492,87.301048,15.69,1.14,0.12,7.48,-5.21,-3.18,1.72,-23.84,-0.67,1.09,0.039,1.020,8.002
94201,22.318492,87.301048,15.69,1.01,0.31,7.78,1.78,2.45,2.34,36.76,29.65,3.25,0.667,0.431,9.179
94300,22.318492,87.301048,15.69,0.53,-0.06,7.27,0.56,-2.86,2.44,-12.34,-53.67,1.08,0.392,0.510,9.061
94447,22.318492,87.301048,15.69,1.05,0.26,7.64,-0.18,-4.40,2.27,-4.99,-10.44,-1.19,0.235,0.941,8.512
94595,22.318492,87.301048,15.69,1.10,0.52,7.49,5.17,-1.27,2.59,36.10,21.10,2.17,0.431,0.392,9.807
94798,22.318492,87.301048,15.69,1.54,-0.34,7.33,4.12,-1.31,3.11,-5.15,-0.19,2.59,0.510,0.902,7.532
95002,22.318492,87.301048,15.69,1.86,0.83,10.84,-4.08,-1.96,2.56,-40.19,-3.18,-2.69,1.569,1.412,8.630
95194,22.318492,87.301048,15.69,1.72,-1.09,5.43,15.18,-5.16,1.66,100.27,-16.66,-4.69,0.549,0.431,9.061
95298,22.318492,87.301048,15.69,1.88,0.94,6.25,5.07,-1.66,2.66,-97.18,33.69,9.62,0.157,1.138,8.473
95442,22.318492,87.301048,15.69,1.37,-0.31,8.36,-0.73,0.73,5.06,-40.29,16.54,16.65,0.941,0.235,7.963
95591,22.318492,87.301048,15.69,0.54,0.11,9.71,-7.15,-5.18,3.40,-43.03,-39.60,-11.17,0.549,0.078,6.119
95799,22.318492,87.301048,15.69,1.73,-0.00,7.00,5.03,-1.45,3.66,58.54,17.91,1.25,1.059,0.981,9.218
96004,22.318492,87.301048,15.69,0.67,0.37,10.02,-7.69,-3.11,4.22,-62.04,-8.12,2.76,0.000,0.941,9.140
96194,22.318492,87.301048,15.69,1.39,0.00,8.56,0.71,-1.05,3.26,44.19,10.85,-5.06,0.392,1.098,8.394
96295,22.318492,87.301048,15.69,0.85,-0.51,9.61,6.46,-4.63,2.89,56.91,-35.45,-3.70,0.392,0.392,8.512
96442,22.318492,87.301048,15.69,0.93,0.30,6.64,2.22,1.11,4.67,-28.82,39.10,12.15,0.235,0.471,8.238
96588,22.318492,87.301048,15.69,0.93,0.03,7.60,1.74,1.49,4.39,-3.29,2.56,-1.93,0.863,0.196,9.689
96790,22.318492,87.301048,15.69,1.03,0.23,8.39,2.00,-0.27,3.21,1.28,-8.73,-5.86,1.334,1.138,8.748
96994,22.318492,87.301048,15.69,0.34,0.06,7.77,1.54,-4.71,3.73,-2.25,-21.74,2.54,0.745,0.196,10.317
97185,22.318492,87.301048,15.69,0.89,-0.28,6.87,3.16,-4.53,4.13,8.47,0.92,2.12,0.667,1.020,10.003
97285,22.318492,87.301048,15.69,1.06,-0.85,8.14,-2.12,-0.23,3.47,-52.82,43.05,-6.64,0.118,0.275,8.041
97433,22.318492,87.301048,15.69,0.99,-0.28,7.92,2.96,1.95,4.04,34.35,14.75,3.87,0.078,0.471,8.944
97577,22.318492,87.301048,15.69,1.07,-0.90,8.18,-3.31,0.24,3.40,-43.52,-11.87,-4.45,0.157,0.157,8.394
97784,22.318492,87.301048,15.69,0.97,0.31,7.83,1.68,-4.77,2.72,24.08,-24.23,-3.28,0.157,1.216,9.101
97989,22.318492,87.301048,15.69,1.25,-0.42,7.01,-1.61,-2.16,3.40,-16.05,12.74,3.31,0.118,0.549,7.806
98182,22.318492,87.301048,15.69,1.68,-0.28,9.10,-0.44,-0.89,3.66,6.05,6.61,1.38,0.785,0.275,8.551
98281,22.318492,87.301048,15.69,0.95,-0.22,7.79,2.21,0.50,3.70,26.83,13.96,0.39,0.392,1.216,9.022
98425,22.318492,87.301048,15.69,0.92,0.06,6.96,-0.64,1.61,4.60,-19.83,7.74,6.20,0.510,0.785,9.140
98570,22.318492,87.301048,15.69,0.72,-0.07,7.82,1.16,-2.79,3.33,12.42,-30.38,-8.74,0.353,0.706,8.198
98776,22.318492,87.301048,15.69,1.03,-0.11,8.10,1.53,-0.79,3.92,1.78,9.75,2.89,0.706,0.353,9.924
98975,22.318492,87.301048,15.69,0.93,0.36,6.80,3.03,-4.02,3.98,7.56,-16.23,0.27,0.078,0.706,7.688
99167,22.318492,87.301048,15.69,1.13,0.07,8.65,-1.20,-0.21,3.99,-22.03,19.84,0.08,0.392,0.981,7.728
99268,22.318492,87.301048,15.69,0.36,-0.17,8.01,-3.76,0.07,4.53,-25.39,2.72,5.29,0.981,0.824,9.611
99414,22.318492,87.301048,15.69,0.86,1.05,5.04,1.99,0.05,3.98,39.42,-0.16,-3.71,0.824,0.863,10.160
99559,22.318492,87.301048,15.69,0.77,0.02,7.24,4.39,-1.67,2.66,16.53,-11.85,-9.11,0.824,1.098,10.081
99765,22.318096,87.300880,15.48,0.56,0.74,8.62,0.24,0.02,3.25,-20.16,8.23,2.85,0.785,0.981,8.551
99961,22.318096,87.300880,15.48,0.93,-0.63,7.88,5.18,-1.82,3.21,25.24,-9.39,-0.19,0.353,0.941,7.061
100153,22.318096,87.300880,15.48,1.13,-0.50,6.54,3.93,-3.03,3.31,-6.52,-6.32,0.52,1.098,0.706,8.081
100254,22.318096,87.300880,15.48,0.73,-0.03,7.88,-8.18,-2.50,3.40,-119.95,5.22,0.83,0.745,0.745,7.728
100403,22.318096,87.300880,15.48,0.78,0.40,6.94,0.98,-0.24,3.53,61.48,15.22,0.92,0.039,0.824,8.904
100548,22.318096,87.300880,15.48,1.33,-0.58,8.95,0.53,-1.98,3.02,-3.11,-12.06,-3.53,0.157,0.902,9.101
100752,22.318096,87.300880,15.48,1.40,-0.01,8.21,-2.22,-0.63,3.08,-13.47,6.66,0.26,0.588,0.510,8.748
100948,22.318048,87.300872,15.33,1.16,0.15,8.19,1.47,-2.24,2.34,18.85,-8.26,-3.78,0.078,0.588,8.120
101140,22.318048,87.300872,15.33,1.28,-0.53,6.90,6.54,-3.49,2.77,26.40,-6.48,2.27,0.745,0.706,8.159
101241,22.318048,87.300872,15.33,1.00,0.25,7.43,-2.98,-4.15,2.23,-94.32,-6.50,-5.37,0.785,0.706,8.787
101390,22.318048,87.300872,15.33,1.06,0.92,7.25,4.03,-1.49,2.71,47.08,17.83,3.23,1.294,0.863,9.689
101535,22.318048,87.300872,15.33,1.11,0.07,6.49,8.42,1.84,2.40,30.27,22.95,-2.11,0.745,1.294,9.375
101727,22.318048,87.300872,15.33,0.93,-0.48,8.31,-0.39,-1.65,1.59,-45.88,-18.17,-4.25,0.667,0.824,7.610
101927,22.317993,87.300857,15.91,1.01,0.23,8.39,-2.55,-3.28,2.14,-10.80,-8.17,2.75,0.235,0.510,7.414
102119,22.317993,87.300857,15.91,1.65,0.62,8.06,-1.02,-1.63,1.79,7.95,8.59,-1.79,0.745,0.941,8.669
102238,22.317993,87.300857,15.91,1.27,-0.80,8.00,-4.71,-0.48,1.84,-30.98,9.69,0.38,0.314,0.902,7.257
102377,22.317993,87.300857,15.91,1.37,-1.11,8.32,4.14,-0.16,1.75,63.65,2.31,-0.66,0.353,1.059,8.473
102524,22.317993,87.300857,15.91,1.09,-0.71,7.72,2.67,-1.82,1.47,-9.97,-11.27,-1.92,-0.039,0.745,8.473
102719,22.317993,87.300857,15.91,1.64,0.74,8.74,-0.43,-0.31,1.18,-15.89,7.71,-1.45,0.667,1.020,8.983
102919,22.317945,87.300857,16.19,1.20,-0.62,7.72,5.47,-1.13,0.97,29.50,-4.08,-1.07,0.000,0.549,6.825
103110,22.317945,87.300857,16.19,1.11,-0.02,8.89,-0.01,-0.84,1.55,-28.70,1.52,3.04,1.020,1.020,8.120
103237,22.317945,87.300857,16.19,1.51,-0.03,8.19,-4.11,-1.39,0.88,-32.34,-4.33,-5.29,-0.039,1.138,7.571
103375,22.317945,87.300857,16.19,0.80,0.15,8.86,2.78,-4.24,0.37,49.95,-20.69,-3.71,0.392,1.059,8.630
103523,22.317945,87.300857,16.19,1.27,-0.73,8.62,0.83,-2.08,0.35,-13.15,14.65,-0.10,0.706,0.745,8.630
103710,22.317945,87.300857,16.19,1.43,0.16,6.98,0.98,-1.70,0.97,0.78,2.00,3.31,0.549,0.863,7.610
103916,22.317901,87.300849,16.17,0.60,-0.40,8.81,2.17,-1.02,0.68,5.78,3.30,-1.41,0.588,0.981,8.551
104108,22.317901,87.300849,16.17,1.02,-0.35,7.66,-1.11,-3.08,1.06,-17.06,-10.73,1.99,0.314,1.608,8.512
104238,22.317901,87.300849,16.17,1.91,0.10,7.67,3.36,0.40,0.82,34.35,26.78,-1.88,0.785,0.902,8.904
104369,22.317901,87.300849,16.17,1.71,-1.30,9.24,-2.95,-1.82,1.13,-48.19,-16.96,2.39,0.745,1.255,8.316
104518,22.317901,87.300849,16.17,1.41,0.27,9.49,2.08,-1.40,1.21,33.81,2.82,0.56,0.275,0.824,8.708
104700,22.317901,87.300849,16.17,1.09,-0.54,7.98,5.73,0.95,0.89,20.05,12.92,-1.76,0.157,1.138,9.767
104907,22.317859,87.300842,14.82,1.79,0.25,8.35,-1.62,-2.33,1.29,-35.51,-15.82,1.92,1.334,0.981,9.140
105100,22.317859,87.300842,14.82,0.98,-0.43,9.98,-14.57,-2.90,1.47,-67.12,-2.97,0.91,0.078,0.785,9.650
105236,22.317859,87.300842,14.82,1.11,-0.93,10.52,-1.20,-5.74,0.85,98.34,-20.88,-4.55,0.353,0.510,7.257
105366,22.317859,87.300842,14.82,1.02,-1.28,6.88,-8.31,-1.46,2.27,-54.73,32.94,10.92,1.255,1.687,9.807
105517,22.317859,87.300842,14.82,0.65,0.19,8.50,-3.89,-4.86,1.41,29.32,-22.55,-5.66,0.196,1.177,7.688
105686,22.317859,87.300842,14.82,1.23,0.26,7.62,-0.30,-0.07,2.12,21.23,28.37,4.20,-0.431,0.667,7.767
105894,22.317859,87.300842,14.82,0.82,-0.71,9.90,2.72,2.37,2.21,14.50,11.74,0.44,0.353,0.981,5.649
106086,22.317859,87.300842,14.82,0.88,0.53,12.65,-10.07,-1.05,2.41,-66.60,-17.85,1.03,0.588,1.608,4.943
106244,22.317859,87.300842,14.82,5.34,-2.65,6.55,-24.69,-4.41,2.84,-92.57,-21.26,2.71,1.294,-1.059,7.492
106354,22.317859,87.300842,14.82,0.79,-0.07,3.05,-1.24,-0.40,1.97,213.19,36.43,-7.91,1.491,1.020,9.532
106504,22.317859,87.300842,14.82,2.45,-0.15,11.24,0.27,-4.98,5.95,10.13,-30.53,26.56,1.334,0.118,8.198
106689,22.317859,87.300842,14.82,0.87,-0.04,7.11,-2.91,-6.09,1.34,-17.21,-5.98,-24.96,0.392,0.039,7.885
106898,22.317775,87.300834,14.33,0.47,-0.22,6.98,4.69,-5.81,2.94,36.34,1.35,7.67,0.157,0.392,9.179
107090,22.317775,87.300834,14.33,1.80,-1.15,6.44,2.50,-2.69,3.93,-11.41,16.22,5.17,-0.196,0.118,6.669
107232,22.317775,87.300834,14.33,1.02,-0.61,10.58,2.71,-0.60,4.34,1.51,14.78,2.90,0.510,0.902,8.748
107354,22.317775,87.300834,14.33,0.31,0.36,7.69,1.54,0.25,4.74,-9.57,6.95,3.25,0.392,0.549,9.218
107498,22.317775,87.300834,14.33,0.94,-0.74,8.52,4.00,-1.47,4.67,17.07,-11.98,-0.48,0.078,0.314,8.512
107681,22.317775,87.300834,14.33,0.34,-0.56,6.85,-1.47,-3.35,4.96,-29.91,-10.26,1.59,0.039,0.471,10.317
107890,22.317775,87.300834,14.33,1.49,-0.03,6.46,6.94,-4.09,4.41,40.25,-3.54,-2.63,0.667,0.471,8.708
108081,22.317775,87.300834,14.33,0.18,-0.49,9.96,-10.23,1.25,5.42,-89.88,27.98,5.28,1.177,0.353,9.297
108230,22.317775,87.300834,14.33,1.10,-1.01,8.92,-8.02,-1.37,5.66,14.86,-17.57,1.59,0.510,0.785,9.885
108347,22.317775,87.300834,14.33,0.74,-0.21,6.19,0.65,0.92,6.03,74.05,19.57,3.20,0.745,0.157,9.101
108492,22.317775,87.300834,14.33,-0.02,-1.01,7.44,-1.12,-0.17,6.12,-12.21,-7.53,0.63,0.902,0.039,7.924
108663,22.317775,87.300834,14.33,0.69,-0.68,8.33,-2.15,-1.07,5.92,-6.03,-5.27,-1.21,0.588,0.118,9.375
108870,22.317775,87.300834,14.33,-0.03,-0.29,6.71,-2.24,-2.19,6.42,-0.41,-5.42,2.43,0.706,0.235,8.708
109062,22.317775,87.300834,14.33,-0.29,0.34,6.45,-2.35,-1.98,6.58,-0.60,1.07,0.83,0.588,0.039,7.335
109220,22.317775,87.300834,14.33,0.22,0.57,7.19,-3.05,-2.46,5.52,-4.40,-3.00,-6.72,0.275,0.431,7.571
109324,22.317775,87.300834,14.33,1.46,0.09,8.30,-1.29,-1.27,4.87,16.88,11.45,-6.24,0.353,0.431,8.944
109471,22.317775,87.300834,14.33,0.23,0.00,8.78,-7.48,-2.63,5.52,-42.11,-9.24,4.41,-0.196,0.431,9.218
109621,22.317775,87.300834,14.33,0.81,0.16,6.80,6.81,1.34,3.59,95.27,26.41,-12.88,0.275,-0.628,7.767
109827,22.317775,87.300834,14.33,1.29,0.43,6.97,8.05,0.50,3.72,6.00,-4.04,0.63,1.098,0.196,8.944
110017,22.317775,87.300834,14.33,1.03,-0.63,11.04,-1.96,-3.20,2.50,-52.67,-19.49,-6.43,0.314,0.353,6.394
110211,22.317775,87.300834,14.33,1.00,-0.94,8.59,17.09,0.27,2.79,98.21,17.86,1.53,0.588,0.078,7.178
110309,22.317775,87.300834,14.33,0.61,-0.66,9.92,5.70,-0.06,2.89,-116.22,-3.35,1.01,0.510,-0.353,8.591
110458,22.317775,87.300834,14.33,1.75,1.37,7.18,-2.56,0.82,3.10,-55.48,5.94,1.38,0.471,0.314,10.395
110605,22.317775,87.300834,14.33,0.56,-0.73,8.68,1.24,-4.59,2.79,25.86,-36.82,-2.13,1.255,0.235,8.198
110813,22.317775,87.300834,14.33,1.04,-0.35,7.41,2.31,-1.31,1.81,5.14,15.74,-4.70,0.549,0.392,9.964
111017,22.317609,87.300827,14.33,0.85,-0.09,6.40,1.08,-1.60,2.17,-5.99,-1.42,1.76,1.255,0.588,8.277
111208,22.317609,87.300827,14.33,0.81,-0.98,8.55,-0.75,-2.48,1.65,-9.59,-4.60,-2.72,0.824,0.392,9.611
111309,22.317609,87.300827,14.33,1.05,0.79,6.84,6.50,-0.76,1.30,71.80,17.08,-3.48,0.353,0.981,9.022
111455,22.317609,87.300827,14.33,0.63,0.34,8.34,0.44,-4.49,1.99,-41.51,-25.57,4.76,0.588,0.706,8.551
111603,22.317609,87.300827,14.33,1.50,-0.30,8.00,0.37,1.31,2.23,-0.46,39.20,1.60,0.353,1.098,7.728
111807,22.317609,87.300827,14.33,1.07,-0.70,8.47,1.95,-1.24,1.68,7.71,-12.50,-2.69,0.785,0.588,8.748
112013,22.317609,87.300827,14.33,1.49,-0.00,8.44,-2.14,0.30,1.36,-19.83,7.45,-1.56,0.706,0.745,9.140
112204,22.317609,87.300827,14.33,0.85,-0.65,8.88,3.64,-3.47,0.65,30.25,-19.70,-3.72,0.510,0.314,9.179
112305,22.317609,87.300827,14.33,1.46,-1.14,8.73,-1.53,-2.02,0.89,-51.24,14.36,2.34,0.471,1.138,8.120
112453,22.317609,87.300827,14.33,1.03,-0.57,8.49,-2.71,-2.02,0.27,-7.94,0.00,-4.13,0.706,0.549,7.061
112601,22.317609,87.300827,14.33,1.26,-0.26,8.59,-0.16,-1.88,0.09,17.23,0.93,-1.24,1.255,0.549,8.591
112807,22.317609,87.300827,14.33,1.17,0.46,7.69,-0.34,-0.39,0.95,-0.85,7.23,4.15,1.020,0.628,9.414
113011,22.317609,87.300827,14.33,1.26,0.36,7.73,-0.92,-3.37,1.28,-2.88,-14.63,1.65,0.902,0.981,9.414
113202,22.317609,87.300827,14.33,0.25,0.43,8.31,-1.00,-0.87,1.26,-0.40,13.11,-0.12,0.902,0.981,8.473
113302,22.317609,87.300827,14.33,0.88,0.43,7.51,-1.95,-3.63,1.18,-9.47,-27.56,-0.76,1.177,1.138,8.120
113449,22.317609,87.300827,14.33,1.09,0.09,7.68,-0.64,-0.81,0.97,8.88,19.16,-1.45,0.706,0.745,8.591
113597,22.317609,87.300827,14.33,0.57,-0.15,8.74,3.43,-3.66,1.14,27.49,-19.29,1.13,0.667,0.745,8.355
113803,22.317609,87.300827,14.33,0.99,-0.44,7.12,0.26,-1.14,1.92,-15.38,12.27,3.78,0.981,0.314,8.512
114009,22.317609,87.300827,14.33,1.22,0.00,7.81,0.65,-3.05,0.92,1.89,-9.30,-4.82,1.451,0.431,8.904
114199,22.317609,87.300827,14.33,1.34,0.14,6.96,1.54,-4.33,1.30,4.70,-6.71,1.97,0.785,0.706,8.002
114295,22.317609,87.300827,14.33,1.07,-0.40,7.37,-0.07,-1.27,1.75,-16.78,31.81,4.69,1.098,0.471,8.826
114444,22.317609,87.300827,14.33,1.19,-0.68,7.04,-1.85,-1.40,1.53,-11.94,-0.87,-1.43,1.020,0.510,9.218
114593,22.317609,87.300827,14.33,1.54,-0.74,8.36,0.12,0.52,1.95,13.22,12.91,2.77,0.275,0.196,7.845
114797,22.317609,87.300827,14.33,0.97,-0.40,8.79,-0.12,-3.60,1.85,-1.20,-20.21,-0.49,0.824,0.588,7.885
115002,22.317609,87.300827,14.33,1.23,-0.22,7.53,3.54,-4.68,2.21,17.87,-5.25,1.75,-0.353,0.510,10.513
115195,22.317609,87.300827,14.33,0.06,-1.05,6.71,2.51,-2.39,3.13,-5.34,11.87,4.79,0.314,0.785,6.669
115294,22.317609,87.300827,14.33,0.74,0.42,10.25,-16.01,-1.88,2.56,-187.06,5.17,-5.71,-0.078,0.510,6.904
115445,22.317609,87.300827,14.33,1.11,0.55,6.85,-3.08,-0.34,3.18,85.64,10.16,4.04,0.471,0.157,9.493
115592,22.317609,87.300827,14.33,0.78,-0.68,7.28,4.55,0.32,1.93,51.88,4.52,-8.46,0.235,0.785,8.591
115795,22.317609,87.300827,14.33,0.86,-0.16,8.91,-5.63,-2.12,2.08,-50.16,-12.03,0.71,0.941,0.118,8.630
116001,22.317609,87.300827,14.33,1.14,-0.07,8.09,2.14,-1.91,1.51,37.72,1.04,-2.74,0.628,1.059,9.807
116193,22.317609,87.300827,14.33,0.11,0.28,9.33,-4.67,-2.43,1.98,-35.46,-2.70,2.43,0.118,0.392,8.434
116293,22.317609,87.300827,14.33,0.82,-0.20,7.32,4.81,-1.70,1.63,94.81,7.25,-3.51,0.785,0.785,9.179
116439,22.317609,87.300827,14.33,0.68,-0.22,7.96,-3.27,-1.16,2.68,-55.32,3.71,7.22,0.902,0.824,9.218
116586,22.317609,87.300827,14.33,0.67,-0.61,7.90,-0.28,-1.80,3.09,20.30,-4.36,2.80,1.098,0.275,7.767
116793,22.317609,87.300827,14.33,0.99,-0.54,8.27,0.55,-1.11,2.42,4.02,3.32,-3.25,0.628,1.138,9.179
116998,22.317609,87.300827,14.33,0.35,-0.49,8.58,-4.05,-1.91,3.64,-22.45,-3.87,5.96,0.628,-0.039,7.963
117189,22.317609,87.300827,14.33,1.20,-0.43,8.44,-1.26,-1.92,3.38,14.63,-0.04,-1.36,0.588,0.510,7.767
117292,22.317609,87.300827,14.33,0.91,-0.67,8.83,0.58,-1.92,3.00,17.86,0.00,-3.71,0.157,0.157,8.120
117438,22.317609,87.300827,14.33,0.92,-0.06,8.35,-0.02,-2.79,3.56,-4.13,-5.96,3.87,0.628,0.588,8.238
117585,22.317609,87.300827,14.33,0.94,-0.32,8.41,0.60,-0.79,3.17,4.21,13.61,-2.70,0.392,0.431,8.787
117790,22.317609,87.300827,14.33,0.60,-0.11,8.34,-0.88,-2.59,3.72,-7.19,-8.79,2.68,0.667,0.628,7.649
117995,22.317609,87.300827,14.33,0.86,-0.04,8.07,1.77,-0.91,4.05,12.92,8.19,1.60,0.706,0.549,7.257
118187,22.317609,87.300827,14.33,0.61,-0.19,8.22,1.44,-0.49,4.78,-1.75,2.19,3.82,0.392,0.039,7.845
118286,22.317609,87.300827,14.33,0.88,-0.67,8.81,-1.11,-0.92,4.94,-25.75,-4.40,1.62,0.706,0.196,9.061
118433,22.317609,87.300827,14.33,0.59,0.06,7.78,-0.27,-2.60,4.83,5.76,-11.37,-0.73,0.588,0.471,7.845
118582,22.317609,87.300827,14.33,0.45,-0.67,8.75,-1.97,-1.27,5.21,-11.42,8.91,2.51,0.275,0.471,8.473
118788,22.317609,87.300827,14.33,0.80,-0.54,9.01,0.41,-0.93,5.28,11.56,1.63,0.37,0.706,0.588,8.159
118992,22.317609,87.300827,14.33,0.84,-0.27,8.41,1.58,-2.05,4.85,5.73,-5.46,-2.13,1.177,0.785,8.983
119184,22.317609,87.300827,14.33,0.42,-0.02,7.33,-0.64,-0.59,4.35,-11.57,7.59,-2.58,0.863,0.863,9.179
119286,22.317609,87.300827,14.33,0.87,-0.31,8.22,-0.89,-0.64,4.24,-2.39,-0.52,-1.05,0.235,0.275,8.277
119435,22.317609,87.300827,14.33,0.79,-0.48,8.52,-1.96,-3.21,4.24,-7.22,-17.21,0.00,0.392,0.196,8.238
119583,22.317609,87.300827,14.33,0.75,-0.95,8.67,-0.35,-2.27,3.79,10.88,6.29,-3.04,0.588,0.510,7.885
119789,22.317609,87.300827,14.33,1.19,-0.48,7.88,-1.70,0.51,3.50,-6.56,13.53,-1.45,0.902,0.471,9.257
119995,22.317609,87.300827,14.33,0.72,-0.14,8.49,0.23,-1.75,3.02,9.38,-10.97,-2.30,0.981,0.588,8.708
120186,22.317609,87.300827,14.33,1.40,0.06,7.93,2.37,-1.06,2.50,11.23,3.60,-2.76,0.471,0.431,7.257
120286,22.317609,87.300827,14.33,1.29,-0.72,9.08,-1.77,-1.82,2.41,-41.45,-7.56,-0.84,0.510,0.353,8.630
120435,22.317609,87.300827,14.33,0.68,0.07,7.96,-3.98,-3.31,2.50,-14.81,-9.99,0.61,1.569,0.706,10.787
120584,22.317609,87.300827,14.33,0.52,-0.34,7.62,-7.06,0.22,3.13,-20.70,23.67,4.20,1.451,1.138,8.748
120791,22.317609,87.300827,14.33,0.80,0.89,5.99,-3.92,-1.85,2.42,15.16,-9.99,-3.43,0.471,0.431,8.041
120995,22.317609,87.300827,14.33,0.63,0.15,7.03,0.30,-1.86,2.31,20.69,-0.07,-0.56,0.078,0.588,8.120
121187,22.317609,87.300827,14.33,0.87,0.31,7.86,2.44,-0.31,2.46,11.13,8.07,0.80,0.157,1.098,8.944
121285,22.317609,87.300827,14.33,1.18,0.06,7.14,4.39,2.05,2.39,19.94,24.15,-0.70,0.353,0.981,9.846
121431,22.317609,87.300827,14.33,0.92,0.93,8.08,4.53,-0.50,1.83,0.99,-17.52,-3.82,0.824,0.510,10.905
121578,22.317609,87.300827,14.33,0.51,0.77,7.84,-1.11,-4.71,0.86,-38.43,-28.61,-6.60,0.628,0.941,8.355
121786,22.317609,87.300827,14.33,0.53,0.75,7.15,-1.59,-5.24,0.46,-2.28,-2.53,-1.95,0.078,1.569,9.611
121991,22.317609,87.300827,14.33,0.98,0.44,6.62,2.27,-1.33,1.41,18.84,19.07,4.65,-0.118,0.588,7.610
122182,22.317609,87.300827,14.33,0.93,-0.18,9.01,-0.95,-3.03,0.85,-16.87,-8.91,-2.92,0.039,0.588,8.630
122287,22.317609,87.300827,14.33,0.58,0.35,7.09,-0.07,-0.47,1.27,8.36,24.35,3.93,0.157,1.569,8.316
122432,22.317609,87.300827,14.33,1.32,0.46,7.53,1.74,-1.58,0.86,12.48,-7.63,-2.79,0.196,1.334,8.394
122578,22.317609,87.300827,14.33,0.71,0.31,8.76,-1.54,-5.81,0.51,-22.48,-28.97,-2.41,0.000,0.431,8.904
122787,22.317609,87.300827,14.33,0.91,-0.28,8.55,3.75,-0.96,0.39,25.31,23.19,-0.58,0.000,1.138,7.924
122993,22.317609,87.300827,14.33,1.30,-0.35,7.86,-0.91,-0.96,0.53,-22.60,0.00,0.70,0.157,0.902,8.316
123184,22.317609,87.300827,14.33,1.56,0.73,7.62,-0.99,-1.96,0.34,-0.44,-5.24,-1.04,0.863,1.216,9.454
123285,22.317609,87.300827,14.33,0.98,1.05,6.93,-4.31,-0.94,0.42,-32.80,10.13,0.83,0.431,0.981,8.238
123432,22.317609,87.300827,14.33,0.93,0.02,8.74,-1.63,-2.39,0.39,18.23,-9.87,-0.21,0.471,1.020,8.081
123580,22.317609,87.300827,14.33,1.65,0.23,7.92,-2.49,-1.29,-0.10,-5.83,7.43,-3.30,0.196,0.785,8.316
123786,22.317609,87.300827,14.33,0.94,0.71,8.15,0.62,-3.89,0.07,15.08,-12.64,0.82,0.275,1.020,8.316
123991,22.317609,87.300827,14.33,1.62,-0.58,8.18,-0.06,-0.26,0.17,-3.31,17.72,0.48,0.196,0.471,9.257
124182,22.317609,87.300827,14.33,1.34,-0.38,7.99,1.24,-2.14,0.44,6.83,-9.83,1.40,-0.078,1.059,7.688
124282,22.317609,87.300827,14.33,1.65,-0.38,7.91,-0.73,0.53,0.77,-19.77,26.64,3.36,0.510,0.745,8.355
124430,22.317609,87.300827,14.33,0.91,0.51,7.93,0.90,-2.27,0.68,11.04,-18.88,-0.62,0.431,1.098,8.238
124577,22.317609,87.300827,14.33,1.17,-0.46,7.19,1.74,0.44,0.57,5.71,18.43,-0.73,0.510,1.020,8.669
124781,22.317609,87.300827,14.33,1.20,-0.63,7.48,-1.86,-4.30,0.73,-17.66,-23.24,0.75,0.863,0.981,9.650
124987,22.317609,87.300827,14.33,1.04,-0.08,8.19,-1.34,-1.75,1.28,2.52,12.38,2.71,0.235,0.745,8.198
125177,22.317609,87.300827,14.33,1.18,0.59,6.79,4.69,-2.50,1.62,31.74,-3.98,1.77,0.353,0.471,7.218
125279,22.317609,87.300827,14.33,1.21,-0.74,8.22,-2.55,-1.27,1.62,-70.95,12.12,0.00,0.431,0.706,8.865
125426,22.317609,87.300827,14.33,1.37,0.47,7.72,-0.10,-3.72,1.73,16.67,-16.67,0.73,0.902,0.549,8.394
125575,22.317609,87.300827,14.33,1.38,-0.27,7.86,-0.35,-1.56,1.82,-1.69,14.45,0.67,1.216,1.138,9.885
125780,22.317609,87.300827,14.33,0.55,0.17,8.91,-3.27,-2.18,1.79,-14.26,-2.98,-0.19,0.549,0.785,8.473
125985,22.317609,87.300827,14.33,1.43,-0.20,7.40,-0.08,-1.06,1.34,15.60,5.44,-2.16,0.824,0.549,8.551
126177,22.317609,87.300827,14.33,0.78,0.08,8.09,0.15,-3.00,1.56,1.19,-10.10,1.11,0.431,0.706,8.081
126277,22.317609,87.300827,14.33,1.50,-0.42,8.35,3.02,-1.24,1.59,28.70,17.56,0.31,0.628,0.824,8.277
126424,22.317609,87.300827,14.33,0.73,-0.28,8.90,1.00,-2.40,1.95,-13.76,-7.84,2.49,0.628,0.785,8.473
126571,22.317609,87.300827,14.33,0.95,-0.11,7.79,1.50,-1.54,2.31,3.38,5.82,2.39,0.981,0.902,8.002
126774,22.317609,87.300827,14.33,1.30,-0.57,8.29,1.50,0.62,3.17,0.00,10.64,4.25,0.549,0.431,8.041
126978,22.317609,87.300827,14.33,1.16,-0.54,6.90,2.75,-0.56,2.85,6.14,-5.80,-1.57,0.392,0.902,8.669
127170,22.317609,87.300827,14.33,0.59,-0.18,7.68,-0.72,-1.69,3.94,-18.05,-5.88,5.69,0.392,0.588,9.532
127273,22.317609,87.300827,14.33,0.88,0.17,7.89,3.21,-0.96,3.90,38.17,7.11,-0.37,-0.157,0.471,8.473
127420,22.317609,87.300827,14.33,0.68,-0.30,8.18,-0.80,-0.78,4.98,-27.31,1.25,7.37,0.471,0.431,8.983
127567,22.317609,87.300827,14.33,1.01,-0.28,7.87,-0.50,-1.61,4.12,2.08,-5.66,-5.87,0.353,0.588,7.963
127774,22.317609,87.300827,14.33,0.63,-0.45,9.32,-0.47,-0.60,4.46,0.11,4.87,1.62,0.510,0.118,8.041
127978,22.317609,87.300827,14.33,0.86,0.50,7.41,-1.66,1.42,4.80,-5.84,9.92,1.68,0.588,0.549,9.022
128168,22.317609,87.300827,14.33,0.87,0.15,9.51,-5.28,-0.34,5.15,-19.04,-9.24,1.85,0.431,0.078,8.434
128272,22.317609,87.300827,14.33,0.40,-0.40,9.22,-4.38,-3.12,5.00,8.66,-26.79,-1.47,-0.078,0.314,6.786
128420,22.317609,87.300827,14.33,1.05,-0.32,8.38,0.02,-2.04,4.72,29.71,7.32,-1.91,1.530,0.157,8.081
128568,22.317609,87.300827,14.33,0.09,0.19,7.55,-9.14,-2.57,5.02,-61.84,-3.61,2.01,0.431,0.588,10.081
128775,22.317609,87.300827,14.33,-0.04,0.20,7.42,-5.64,-2.44,5.16,16.89,0.63,0.70,-0.078,0.824,8.238
128979,22.317609,87.300827,14.33,-0.17,-0.41,6.78,2.47,-3.14,4.47,39.78,-3.41,-3.37,0.314,0.863,11.062
129174,22.317609,87.300827,14.33,0.46,0.18,7.50,-3.77,-0.41,4.05,-32.02,13.98,-2.15,0.000,0.078,7.375
129277,22.317609,87.300827,14.33,0.63,-1.10,9.61,1.55,-5.24,3.31,51.66,-46.84,-7.26,-0.039,-0.275,7.335
129428,22.317609,87.300827,14.33,1.06,0.12,9.14,0.92,-4.90,3.22,-4.15,2.22,-0.56,0.275,0.431,8.041
129573,22.317609,87.300827,14.33,1.44,0.17,7.31,-1.10,-3.36,3.13,-13.95,10.63,-0.63,0.078,0.902,8.983
129781,22.317609,87.300827,14.33,1.43,0.06,7.26,3.23,0.08,4.29,20.81,16.51,5.58,1.294,0.902,8.159
129986,22.317609,87.300827,14.33,0.91,-0.12,9.08,4.60,-1.11,3.69,6.67,-5.77,-2.90,0.039,1.373,9.022
130178,22.317609,87.300827,14.33,1.49,-0.40,6.46,6.05,-0.84,3.10,7.59,1.39,-3.10,0.118,0.275,8.473
130277,22.317609,87.300827,14.33,0.26,-0.83,9.65,-4.89,-2.17,3.76,-110.49,-13.42,6.63,-0.196,0.078,7.688
130428,22.317609,87.300827,14.33,1.50,-0.50,8.88,1.24,0.69,3.82,40.59,18.91,0.45,0.196,-0.196,8.944
130575,22.317609,87.300827,14.33,1.52,-0.44,10.12,-7.47,-3.16,3.52,-59.25,-26.17,-2.08,-0.157,0.078,6.669
130786,22.317609,87.300827,14.33,1.27,-0.97,8.00,2.79,1.23,3.06,48.62,20.80,-2.17,0.549,0.235,10.120
130993,22.317609,87.300827,14.33,0.40,0.81,6.47,2.40,-0.67,3.75,-1.88,-9.18,3.32,0.235,0.628,7.178
131182,22.317609,87.300827,14.33,1.11,-0.21,7.93,2.18,-0.82,2.91,-1.17,-0.77,-4.44,0.745,0.431,8.512
131284,22.317609,87.300827,14.33,0.49,-0.50,7.55,-2.39,-1.98,2.96,-44.83,-11.38,0.52,0.314,0.235,9.179
131433,22.317609,87.300827,14.33,1.32,0.35,7.23,3.82,-1.73,2.41,41.70,1.69,-3.69,1.373,0.902,10.160
131580,22.317609,87.300827,14.33,0.45,-0.17,6.68,2.08,-3.00,3.10,-11.84,-8.67,4.67,0.628,0.941,9.924
131786,22.317609,87.300827,14.33,0.38,0.14,7.07,-2.58,1.13,3.53,-22.64,20.05,2.11,1.373,0.902,10.238
131993,22.317609,87.300827,14.33,0.45,1.03,5.77,5.05,-1.99,3.95,36.84,-15.08,2.03,1.255,1.020,7.767
132185,22.317609,87.300827,14.33,0.49,-0.63,6.87,6.51,-2.03,3.99,7.63,-0.20,0.20,0.941,0.314,7.257
132284,22.317609,87.300827,14.33,0.58,-0.21,9.25,-8.38,-2.69,4.47,-150.44,-6.71,4.78,0.353,0.510,6.512
132433,22.317609,87.300827,14.33,1.68,-1.22,8.68,-2.29,-1.14,3.59,40.88,10.45,-5.89,0.392,0.549,7.492
132582,22.317609,87.300827,14.33,0.69,-1.16,9.48,3.87,-4.68,3.34,41.34,-23.77,-1.64,0.000,0.314,8.041
132790,22.317609,87.300827,14.33,1.23,-0.25,8.49,1.88,2.25,4.21,-9.58,33.32,4.18,1.020,0.118,11.376
132996,22.317609,87.300827,14.33,0.18,-0.53,7.53,3.99,-3.06,2.50,10.26,-25.79,-8.30,0.549,0.667,10.277
133189,22.317609,87.300827,14.33,0.71,-0.61,6.79,11.95,-0.34,2.08,41.21,14.08,-2.21,1.138,0.549,9.728
133289,22.317609,87.300827,14.33,0.74,0.35,6.01,9.89,-0.66,2.69,-20.53,-3.21,6.11,0.549,0.510,8.473
133436,22.317609,87.300827,14.33,1.45,-0.32,7.60,-5.21,-1.02,2.85,-102.72,-2.44,1.09,0.863,0.157,8.551
133585,22.317609,87.300827,14.33,0.48,-0.95,11.36,-17.34,-6.47,2.80,-81.46,-36.53,-0.31,0.981,0.902,8.120
133796,22.317609,87.300827,14.33,1.17,-0.92,6.99,6.40,1.66,3.00,112.55,38.53,0.94,0.588,0.118,7.767
134002,22.317609,87.300827,14.33,0.95,-0.33,9.18,-4.45,-0.78,2.99,-52.69,-11.86,-0.04,0.157,0.510,8.316
134195,22.317609,87.300827,14.33,1.36,0.23,9.30,2.30,-1.31,2.92,34.96,-2.73,-0.40,0.588,0.941,6.747
134293,22.317609,87.300827,14.33,0.57,1.02,7.70,-4.45,-2.89,3.32,-68.86,-16.20,4.13,-0.275,0.353,9.257
134443,22.317609,87.300827,14.33,0.92,-0.31,6.55,3.92,3.82,3.78,55.78,44.78,3.05,0.824,0.628,8.591
134588,22.317609,87.300827,14.33,1.24,-0.79,10.04,-6.82,-2.30,2.79,-74.02,-42.22,-6.84,-0.431,0.863,9.767
134800,22.317609,87.300827,14.33,0.94,-1.24,10.01,-6.54,-1.13,2.34,1.30,5.51,-2.09,0.039,-0.392,8.081
135005,22.317609,87.300827,14.33,1.33,-0.12,8.73,7.22,-4.76,1.39,67.14,-17.69,-4.65,0.706,1.648,8.159
135196,22.317609,87.300827,14.33,0.94,-0.95,6.42,0.08,-1.40,3.51,-37.41,17.55,11.11,0.706,1.216,10.042
135299,22.317609,87.300827,14.33,0.54,-0.36,6.18,-10.97,-5.26,2.82,-107.24,-37.43,-6.74,0.863,0.392,9.454
135450,22.317609,87.300827,14.33,0.82,0.99,6.02,2.32,-1.98,2.51,88.01,21.74,-2.02,1.451,0.471,8.904
135598,22.317609,87.300827,14.33,0.82,0.08,7.37,3.05,0.04,3.08,4.90,13.62,3.82,1.177,0.510,9.571
135799,22.317609,87.300827,14.33,1.66,0.51,4.56,0.79,-0.86,2.99,-11.20,-4.48,-0.42,1.608,0.745,11.454
136005,22.317609,87.300827,14.33,0.57,-0.11,6.30,-1.52,-6.39,1.17,-11.23,-26.83,-8.86,0.785,1.098,7.061
136198,22.317609,87.300827,14.33,1.36,-0.07,8.27,-4.78,-0.78,2.12,-16.89,29.07,4.94,0.785,1.216,10.160
136299,22.317609,87.300827,14.33,0.76,-0.36,8.66,-7.34,-1.75,1.52,-25.32,-9.60,-5.97,0.471,0.588,8.865
136449,22.317609,87.300827,14.33,0.68,0.10,8.16,-0.02,-3.44,1.81,48.75,-11.30,1.93,1.177,0.745,8.669
136596,22.317609,87.300827,14.33,1.27,-0.10,8.60,-6.32,-1.92,2.43,-42.84,10.33,4.21,1.138,0.667,9.218
136804,22.317609,87.300827,14.33,0.65,-0.39,7.24,-4.02,-0.33,3.63,11.05,7.67,5.80,0.549,0.588,8.630
137009,22.316772,87.301315,14.33,1.07,-1.31,7.12,2.00,-2.63,3.36,29.38,-11.21,-1.34,0.314,0.588,7.492
137201,22.316772,87.301315,14.33,0.78,-0.40,7.83,-3.76,-1.54,3.24,-29.98,5.65,-0.64,0.667,0.471,9.375
137302,22.316772,87.301315,14.33,1.28,-0.12,8.04,-7.65,-2.95,3.56,-38.55,-13.98,3.17,1.177,0.510,8.708
137451,22.316772,87.301315,14.33,1.06,-0.28,7.11,0.37,-1.87,3.09,53.84,7.27,-3.13,1.334,0.745,9.101
137597,22.316772,87.301315,14.33,1.08,-1.07,8.27,-1.63,-2.28,3.02,-13.75,-2.82,-0.52,1.216,0.510,9.611
137805,22.316772,87.301315,14.33,1.23,-0.70,6.95,6.82,-3.55,2.91,40.63,-6.09,-0.51,0.628,0.628,8.473
138012,22.316761,87.301330,14.33,1.25,-0.59,9.00,0.63,-2.99,2.27,-29.87,2.69,-3.10,0.863,0.824,8.473
138204,22.316761,87.301330,14.33,1.02,-0.56,7.43,-1.25,-1.07,2.42,-9.82,10.02,0.80,0.863,1.020,8.159
138302,22.316761,87.301330,14.33,1.42,-0.86,7.67,2.85,-2.38,1.97,41.83,-13.40,-4.60,1.177,0.902,8.473
138450,22.316761,87.301330,14.33,1.24,-0.76,7.88,-0.31,-2.38,1.05,-21.30,0.00,-6.24,0.745,0.588,8.473
138599,22.316761,87.301330,14.33,1.82,-0.59,7.48,1.37,-0.06,1.37,11.22,15.57,2.15,0.588,0.667,7.924
138804,22.316761,87.301330,14.33,1.53,-0.40,10.07,-2.64,-0.12,1.36,-19.55,-0.30,-0.04,0.706,0.510,8.120
139011,22.316745,87.301361,14.33,1.42,-0.97,6.73,1.59,-2.45,0.56,20.43,-11.25,-3.87,0.863,1.294,8.159
139203,22.316745,87.301361,14.33,0.99,0.09,6.43,0.84,-0.58,0.70,-3.90,9.74,0.76,0.392,1.020,9.454
139299,22.316745,87.301361,14.33,0.82,0.15,7.88,-2.71,-2.26,0.96,-36.98,-17.49,2.70,0.588,1.020,7.571
139448,22.316745,87.301361,14.33,1.17,-0.72,7.20,-3.50,0.44,1.11,-5.33,18.14,1.02,0.824,0.745,9.414
139594,22.316745,87.301361,14.33,0.75,-1.00,8.02,-11.99,-1.82,1.45,-58.14,-15.48,2.30,0.785,0.353,8.787
139803,22.316745,87.301361,14.33,1.30,0.45,5.78,-1.05,-2.90,1.50,52.34,-5.19,0.26,0.745,1.138,7.335
140009,22.316728,87.301399,14.33,0.91,0.46,7.42,0.71,3.40,1.32,8.56,30.57,-0.89,0.314,0.588,8.944
140200,22.316728,87.301399,14.33,0.64,0.77,8.85,-0.95,-1.89,0.95,-8.71,-27.66,-1.96,-0.745,1.255,8.787
140302,22.316728,87.301399,14.33,1.01,0.86,8.86,-0.47,-4.30,0.96,4.79,-23.65,0.15,0.157,1.294,9.218
140448,22.316728,87.301399,14.33,0.97,-1.12,7.17,2.50,-1.51,1.28,20.29,19.08,2.20,0.118,1.059,8.120
140595,22.316728,87.301399,14.33,0.70,0.42,8.51,0.67,-3.13,2.14,-12.41,-11.01,5.82,0.157,1.177,10.003
140803,22.316728,87.301399,14.33,1.46,0.63,7.48,-1.76,-1.45,2.50,-11.67,8.07,1.76,-0.392,0.392,8.394
141007,22.316707,87.301429,14.33,1.57,0.43,7.11,0.67,-2.74,3.13,11.90,-6.32,3.07,0.235,0.431,8.473
141198,22.316707,87.301429,14.33,1.84,1.20,7.26,-5.75,-1.79,2.52,-33.61,5.00,-3.20,-0.863,1.020,8.826
141299,22.316707,87.301429,14.33,0.53,0.17,9.24,-1.38,-4.15,3.37,43.23,-23.43,8.39,-0.157,0.785,7.767
141447,22.316707,87.301429,14.33,1.22,0.79,7.55,0.36,-2.39,3.33,11.76,11.91,-0.26,0.078,1.138,8.277
141594,22.316707,87.301429,14.33,0.89,0.24,8.98,-3.38,-4.72,3.25,-25.45,-15.84,-0.52,0.941,0.863,7.806
141802,22.316707,87.301429,14.33,0.86,-0.16,9.21,3.26,0.24,3.34,31.93,23.82,0.40,0.471,0.510,8.904
142007,22.316688,87.301467,14.33,1.83,-0.45,8.44,1.27,-3.00,2.89,-9.72,-15.79,-2.20,0.039,0.902,8.983
142198,22.316688,87.301467,14.33,1.24,0.40,9.53,0.40,0.37,3.08,-4.56,17.67,1.04,0.353,0.785,7.806
142295,22.316688,87.301467,14.33,0.99,-0.67,9.00,2.55,-1.41,2.73,22.19,-18.42,-3.70,-0.510,0.392,7.453
142444,22.316688,87.301467,14.33,1.02,0.73,8.06,5.75,-0.60,3.75,21.47,5.48,6.87,-0.118,0.981,8.826
142589,22.316688,87.301467,14.33,0.72,-0.65,9.01,-0.98,0.34,3.64,-46.38,6.48,-0.74,-0.118,0.157,7.178
142796,22.316688,87.301467,14.33,1.14,0.19,8.29,2.12,-1.18,2.53,14.97,-7.38,-5.35,0.941,0.745,8.865
143001,22.316688,87.301467,14.33,0.61,0.29,7.48,1.31,-2.53,2.73,-3.98,-6.59,0.93,0.157,0.981,7.610
143193,22.316688,87.301467,14.33,0.69,-0.46,9.02,2.89,-0.80,2.50,8.27,9.03,-1.19,0.549,0.392,7.963
143290,22.316688,87.301467,14.33,1.03,-0.22,9.31,-2.41,-1.92,2.84,-54.69,-11.49,3.54,-0.157,0.392,8.355
143440,22.316688,87.301467,14.33,0.68,0.39,6.89,2.99,0.62,2.89,36.03,16.90,0.36,0.196,0.785,7.845
143585,22.316688,87.301467,14.33,0.61,0.19,7.82,-4.32,-0.71,3.23,-50.43,-9.16,2.32,0.471,0.431,8.277
143792,22.316688,87.301467,14.33,0.97,-0.67,8.62,-3.61,-1.48,3.13,3.43,-3.72,-0.48,0.471,0.431,10.160
143996,22.316688,87.301467,14.33,0.00,-0.12,9.03,8.13,-0.10,3.14,57.55,6.77,0.04,0.314,0.431,7.963
144188,22.316688,87.301467,14.33,1.17,-0.34,7.93,-3.92,-1.63,2.74,-62.74,-7.95,-2.07,0.392,0.706,9.807
144289,22.316688,87.301467,14.33,0.61,0.01,7.63,-3.93,0.16,3.58,-0.15,17.69,8.31,0.431,0.863,8.316
144435,22.316688,87.301467,14.33,0.64,0.69,7.48,-0.66,-2.27,3.02,22.38,-16.68,-3.82,0.235,0.863,8.316
144583,22.316688,87.301467,14.33,0.38,0.34,8.81,-5.27,-6.64,3.63,-31.10,-29.50,4.07,0.078,0.745,7.924
144790,22.316688,87.301467,14.33,0.34,0.44,7.24,0.48,-0.51,3.47,27.77,29.61,-0.77,0.196,0.706,8.512
144995,22.316688,87.301467,14.33,1.44,-0.43,8.75,1.29,-3.68,3.40,3.95,-15.45,-0.34,0.706,0.588,8.748
145186,22.316688,87.301467,14.33,1.30,0.31,9.72,-6.06,-4.05,3.21,-38.49,-1.92,-1.00,0.118,0.275,7.728
145287,22.316688,87.301467,14.33,1.63,-0.36,9.65,-4.48,-2.34,3.54,15.65,16.85,3.33,0.235,0.785,7.610
145434,22.316688,87.301467,14.33,0.77,-1.13,9.19,2.38,-1.27,3.18,46.68,7.27,-2.44,0.941,1.216,8.238
145581,22.316688,87.301467,14.33,1.19,0.34,7.71,0.40,-0.50,3.22,-13.50,5.30,0.26,0.549,0.471,8.748
145784,22.316688,87.301467,14.33,0.72,-0.12,8.43,-1.86,-0.37,3.34,-11.13,0.60,0.56,0.549,0.392,8.826
145989,22.316688,87.301467,14.33,1.55,0.30,8.78,0.57,-0.24,3.24,11.88,0.67,-0.48,1.177,0.667,8.120
146181,22.316688,87.301467,14.33,1.26,-0.81,8.08,9.01,0.20,2.89,43.93,2.27,-1.79,0.275,0.628,7.335
146280,22.316688,87.301467,14.33,0.75,-0.24,7.68,-0.60,-1.09,3.40,-97.00,-13.03,5.09,0.392,1.138,8.630
146429,22.316688,87.301467,14.33,0.39,0.07,7.25,-0.35,-1.76,3.22,1.64,-4.46,-1.18,0.431,0.588,9.218
146576,22.316688,87.301467,14.33,1.35,-0.48,6.42,6.62,-0.01,2.96,47.41,11.89,-1.77,0.471,0.667,8.826
146783,22.316688,87.301467,14.33,1.23,0.90,7.68,-5.71,-5.52,3.85,-59.56,-26.63,4.31,0.078,1.294,9.689
146989,22.316688,87.301467,14.33,0.79,0.43,8.23,-1.47,-3.30,3.48,20.60,10.78,-1.82,0.118,0.824,9.101
147181,22.316688,87.301467,14.33,1.18,0.40,8.88,-0.05,-2.33,3.66,7.36,5.05,0.95,0.628,0.941,9.101
147279,22.316688,87.301467,14.33,0.75,0.39,7.59,-3.05,-2.31,3.26,-30.53,0.16,-4.13,-0.078,1.177,9.101
147428,22.316688,87.301467,14.33,0.95,-0.72,7.04,-2.50,-3.11,3.02,3.64,-5.33,-1.64,0.196,0.941,8.120
147575,22.316688,87.301467,14.33,1.81,-0.37,8.16,-1.54,-1.73,3.06,6.54,9.40,0.31,-0.039,0.745,8.748
147780,22.316688,87.301467,14.33,2.07,0.16,9.18,-0.42,-3.11,2.63,5.47,-6.74,-2.12,0.235,1.255,8.669
147985,22.316688,87.301467,14.33,0.92,-0.24,7.81,-2.53,-4.06,2.94,-10.28,-4.65,1.53,0.196,0.588,8.787
148176,22.316688,87.301467,14.33,1.25,0.26,9.15,-1.66,-2.38,3.05,4.56,8.79,0.56,-0.314,0.588,6.394
148276,22.316688,87.301467,14.33,1.01,-1.24,8.56,3.93,-0.21,2.85,55.88,21.68,-1.98,0.785,1.216,8.669
148423,22.316688,87.301467,14.33,1.87,-0.74,7.22,3.80,0.40,2.68,-0.88,4.21,-1.14,0.471,0.863,8.316
148569,22.316688,87.301467,14.33,1.29,0.04,8.61,2.44,-1.29,2.76,-9.31,-11.61,0.58,1.255,1.255,8.708
148773,22.316688,87.301467,14.33,1.56,-0.90,6.70,3.91,-2.39,3.14,7.18,-5.39,1.83,0.628,0.745,8.277
148978,22.316688,87.301467,14.33,1.25,-0.94,7.84,-1.24,-0.85,2.70,-25.13,7.48,-2.12,-0.078,0.902,8.355
149171,22.316688,87.301467,14.33,1.62,-0.29,7.01,6.69,-2.09,2.12,41.09,-6.41,-3.01,0.745,0.785,8.277
149273,22.316688,87.301467,14.33,1.54,-0.24,7.24,-0.57,-0.60,3.01,-71.17,14.67,8.68,1.059,0.745,7.571
149422,22.316688,87.301467,14.33,0.96,0.97,6.51,1.47,-0.79,2.68,13.68,-1.33,-2.20,1.020,1.334,9.061
149568,22.316688,87.301467,14.33,0.90,0.87,7.87,-4.75,-4.62,3.40,-42.56,-26.19,4.97,0.785,1.177,9.061
149775,22.316688,87.301467,14.33,1.28,0.23,9.53,-5.29,-1.56,2.60,-2.62,14.79,-3.87,0.824,0.863,6.825
149980,22.316688,87.301467,14.33,0.88,-0.33,6.66,-2.40,1.47,3.82,14.08,14.75,5.92,0.196,1.020,8.316
150172,22.316688,87.301467,14.33,0.97,-0.21,8.09,3.31,-0.72,2.92,29.74,-11.37,-4.69,0.353,0.667,8.434
150277,22.316688,87.301467,14.33,0.98,0.58,7.98,2.28,-0.31,1.99,-9.74,3.93,-8.80,0.981,1.412,10.238
150422,22.316688,87.301467,14.33,0.26,0.39,7.33,6.98,-1.52,1.58,32.38,-8.37,-2.84,0.706,0.706,9.571
150568,22.316688,87.301467,14.33,1.25,0.01,8.79,-7.04,-2.99,1.64,-95.99,-10.09,0.42,1.412,1.412,8.394
150775,22.316688,87.301467,14.33,0.85,0.65,8.75,-9.63,-3.02,2.21,-12.50,-0.15,2.73,-0.157,1.216,8.355
150980,22.316688,87.301467,14.33,1.57,0.23,5.68,-6.49,-1.33,2.68,15.30,8.27,2.31,0.628,0.667,8.238
151173,22.316688,87.301467,14.33,1.85,-0.41,7.49,4.08,-0.51,2.27,54.78,4.23,-2.10,1.138,0.824,10.160
151275,22.316688,87.301467,14.33,0.47,0.62,6.88,10.31,0.04,1.04,60.99,5.39,-12.12,0.706,0.628,8.434
151421,22.316688,87.301467,14.33,0.86,-0.50,7.13,-4.01,-1.63,2.05,-98.03,-11.45,6.90,1.216,0.471,9.336
151571,22.316688,87.301467,14.33,1.32,-0.82,9.67,-11.08,-6.01,2.38,-47.12,-29.16,2.24,0.588,0.745,7.453
151781,22.316688,87.301467,14.33,1.17,0.32,7.59,-2.93,-0.14,2.44,38.79,27.95,0.25,0.196,-0.196,8.238
151988,22.316564,87.301933,15.72,2.15,-1.16,7.49,3.31,-2.49,2.77,30.17,-11.36,1.62,0.745,0.902,7.139
152180,22.316564,87.301933,15.72,1.06,0.38,8.52,-2.31,-2.18,2.73,-29.30,1.63,-0.20,1.334,1.059,8.159
152283,22.316564,87.301933,15.72,1.09,-1.64,7.39,7.02,1.69,2.55,90.57,37.50,-1.78,0.039,1.255,8.708
152429,22.316564,87.301933,15.72,1.31,-0.32,9.81,-8.89,-8.26,3.57,-108.96,-68.13,7.01,0.157,0.628,7.924
152580,22.316564,87.301933,15.72,1.25,-0.45,6.73,-0.18,3.79,2.95,57.73,79.82,-4.09,1.294,1.020,8.904
152786,22.316564,87.301933,15.72,0.67,-0.10,8.73,0.16,1.13,2.76,1.63,-12.93,-0.93,0.667,0.824,8.434
152991,22.316564,87.301933,15.72,0.63,-0.30,8.12,-1.99,-1.02,2.67,-10.50,-10.46,-0.45,1.451,0.510,9.140
153183,22.316564,87.301933,15.72,0.98,-1.19,8.38,0.95,-0.85,2.11,15.31,0.87,-2.94,0.510,0.510,8.277
153285,22.316564,87.301933,15.72,0.64,0.29,7.60,12.92,-1.63,1.76,117.42,-7.63,-3.37,1.020,0.745,10.395
153434,22.316564,87.301933,15.72,0.62,0.33,7.00,2.76,1.09,2.83,-68.24,18.24,7.17,1.020,0.824,8.748
153580,22.316564,87.301933,15.72,0.57,0.54,7.77,-0.08,-3.11,2.42,-19.40,-28.81,-2.82,1.334,0.981,7.296
153788,22.316564,87.301933,15.72,0.77,-0.37,7.13,4.37,-2.26,2.54,21.36,4.11,0.59,0.981,0.196,8.041
153994,22.316564,87.301933,15.72,1.31,-0.49,7.64,3.47,-3.39,3.05,-4.37,-5.48,2.45,0.431,0.471,8.277
154185,22.316564,87.301933,15.72,1.11,-1.01,8.73,2.48,-1.31,2.66,-5.16,10.87,-2.04,1.255,0.196,7.845
154287,22.316564,87.301933,15.72,1.17,0.31,7.79,-4.52,-2.81,2.88,-68.63,-14.67,2.17,1.216,1.098,7.688
154435,22.316564,87.301933,15.72,0.74,0.18,8.04,-6.91,-3.42,3.19,-16.14,-4.13,2.11,1.177,0.588,9.807
154583,22.316564,87.301933,15.72,0.46,-0.73,7.98,-1.47,-2.11,3.01,36.72,8.82,-1.24,0.941,1.059,8.512
154789,22.316564,87.301933,15.72,0.76,-1.06,8.59,2.63,-1.02,3.59,19.94,5.30,2.82,1.138,0.706,8.198
154994,22.316564,87.301933,15.72,1.20,0.32,8.57,-3.18,-2.20,3.27,-28.37,-5.73,-1.53,0.785,0.628,8.002
155185,22.316564,87.301933,15.72,1.23,-0.59,9.45,1.52,-2.74,2.99,24.62,-2.84,-1.48,0.471,0.549,7.806
155287,22.316564,87.301933,15.72,1.28,-0.38,7.88,3.63,1.48,3.79,20.66,41.39,7.86,0.588,-0.039,7.688
155432,22.316564,87.301933,15.72,0.87,-0.55,8.37,1.84,-1.29,3.04,-12.32,-19.11,-5.21,0.863,0.588,8.630
155583,22.316564,87.301933,15.72,0.99,-0.42,7.88,0.79,-2.17,2.76,-6.93,-5.81,-1.82,0.353,0.510,8.081
155789,22.316564,87.301933,15.72,1.30,-0.28,9.34,-1.34,0.35,2.71,-10.34,12.23,-0.26,2.079,0.745,8.002
155995,22.316564,87.301933,15.72,0.58,-0.64,6.84,-10.90,-4.38,3.02,-46.43,-22.97,1.52,0.431,0.785,7.963
156188,22.316564,87.301933,15.72,0.69,0.08,10.32,-6.46,0.44,2.28,23.02,24.96,-3.84,0.392,1.334,9.375
156290,22.316564,87.301933,15.72,0.84,0.08,7.21,-1.77,-2.18,2.51,45.95,-25.59,2.25,0.745,0.431,8.669
156437,22.316564,87.301933,15.72,1.24,-0.13,6.62,2.72,1.20,2.21,30.53,22.95,-2.08,0.745,1.020,10.277
156584,22.316564,87.301933,15.72,1.09,-0.00,6.80,-0.56,-0.08,1.96,-22.33,-8.72,-1.66,1.098,0.667,9.689
156793,22.316564,87.301933,15.72,1.03,0.51,9.22,0.56,-1.15,1.80,5.37,-5.08,-0.77,0.471,1.177,9.414
156997,22.316564,87.301933,15.72,0.44,0.38,7.56,-1.33,-5.60,1.95,-9.24,-21.82,0.75,0.588,1.334,8.081
157188,22.316564,87.301933,15.72,0.99,-0.54,6.96,3.72,-1.00,1.13,26.42,24.06,-4.32,0.785,0.588,9.532
157290,22.316564,87.301933,15.72,0.81,-0.02,7.58,-4.00,-3.32,1.87,-75.66,-22.75,7.26,0.667,0.785,9.101
157438,22.316564,87.301933,15.72,1.24,-0.90,9.27,-5.42,-4.40,2.11,-9.59,-7.27,1.65,0.392,0.706,7.375
157587,22.316564,87.301933,15.72,0.48,-0.52,8.73,8.13,-1.56,1.85,90.94,19.01,-1.74,0.314,0.667,8.355
157793,22.316564,87.301933,15.72,0.73,0.28,8.02,-5.99,0.18,2.67,-68.55,8.49,3.97,-0.078,0.235,8.983
157998,22.316564,87.301933,15.72,0.93,0.11,6.58,1.88,-1.98,2.15,38.39,-10.54,-2.57,0.510,0.941,10.199
158191,22.316564,87.301933,15.72,1.25,-0.14,8.27,5.69,0.56,1.99,19.74,13.17,-0.79,1.177,0.785,7.100
158291,22.316564,87.301933,15.72,0.73,-0.94,9.17,4.43,-4.23,1.47,-12.60,-47.94,-5.27,0.706,0.471,9.650
158441,22.316564,87.301933,15.72,1.07,-0.07,5.88,4.66,-1.29,1.95,1.58,19.59,3.26,1.177,0.863,10.081
158587,22.316564,87.301933,15.72,0.84,-0.45,8.97,-5.60,-3.34,1.81,-70.27,-14.01,-0.99,1.177,0.157,7.924
158796,22.316564,87.301933,15.72,1.03,-0.23,6.23,-1.37,-3.57,2.45,20.23,-1.13,3.07,0.510,0.431,9.571
159003,22.316572,87.302299,15.72,0.62,-0.04,6.99,-0.48,-2.22,1.95,4.28,6.53,-2.40,0.118,0.157,8.002
159195,22.316572,87.302299,15.72,1.00,0.62,10.91,-10.05,-3.09,1.91,-49.82,-4.53,-0.24,-0.196,0.902,8.787
159298,22.316572,87.302299,15.72,0.80,0.46,7.50,-0.13,-0.24,2.33,96.27,27.72,4.08,0.235,0.510,9.179
159444,22.316572,87.302299,15.72,0.75,0.69,8.76,0.97,-3.63,1.44,7.53,-23.27,-6.07,0.392,0.667,8.669
159591,22.316572,87.302299,15.72,0.75,-0.51,9.26,-2.63,-4.24,1.93,-24.46,-4.15,3.32,1.138,0.588,8.551
159799,22.316572,87.302299,15.72,1.47,-0.40,6.22,4.40,-0.98,1.03,33.80,15.67,-4.33,0.588,0.706,9.689
160006,22.316576,87.302345,15.72,0.37,-0.81,9.28,3.24,-0.66,1.13,-5.61,1.59,0.48,0.392,0.863,7.139
160197,22.316576,87.302345,15.72,1.25,0.55,8.80,-3.01,-2.48,1.92,-32.73,-9.55,4.12,1.020,0.275,10.003
160297,22.316576,87.302345,15.72,1.32,0.12,7.23,3.19,-1.85,1.30,61.98,6.26,-6.18,0.549,0.353,7.335
160443,22.316576,87.302345,15.72,1.08,-0.22,8.89,0.03,-0.31,1.46,-21.65,10.56,1.10,0.549,0.157,8.198
160590,22.316576,87.302345,15.72,1.10,0.60,9.69,-1.08,-3.06,1.21,-7.53,-18.69,-1.71,0.549,0.431,7.296
160797,22.316576,87.302345,15.72,1.41,-0.88,7.04,-0.30,0.48,1.95,3.76,17.11,3.61,0.157,0.628,9.375
161003,22.316577,87.302406,15.72,1.09,-0.89,7.24,0.38,-4.60,1.42,3.30,-24.68,-2.59,0.314,0.588,7.728
161195,22.316577,87.302406,15.72,1.14,0.60,8.54,-0.75,-1.12,1.80,-5.88,18.13,1.99,0.981,0.981,8.904
161293,22.316577,87.302406,15.72,0.56,-0.32,6.65,-0.16,-0.82,1.52,6.00,3.12,-2.88,0.902,0.824,10.160
161440,22.316577,87.302406,15.72,0.90,-0.01,6.62,1.02,-0.31,1.21,8.05,3.43,-2.13,1.020,1.098,8.277
161586,22.316577,87.302406,15.72,1.23,-0.10,8.05,-4.55,-2.56,1.29,-38.17,-15.37,0.58,0.863,0.510,8.355
161795,22.316577,87.302406,15.72,0.69,-0.31,7.20,8.25,0.55,1.29,61.25,14.87,0.00,0.863,0.824,9.807
161999,22.316577,87.302459,15.72,1.35,-1.11,6.16,3.19,-0.39,1.21,-24.81,-4.60,-0.37,1.569,0.902,10.866
162192,22.316577,87.302459,15.72,0.37,-0.24,7.41,-1.12,0.11,2.00,-22.35,2.57,4.07,0.118,0.275,6.943
162291,22.316577,87.302459,15.72,1.03,-0.17,8.89,0.03,-3.97,0.96,11.64,-41.18,-10.49,0.078,0.471,8.591
162440,22.316577,87.302459,15.72,1.60,-0.59,8.25,-1.56,-1.11,1.08,-10.66,19.16,0.82,0.863,0.824,8.355
162589,22.316577,87.302459,15.72,0.67,-0.30,8.35,-2.33,-3.42,0.85,-5.17,-15.47,-1.59,0.471,0.706,8.512
162797,22.316577,87.302459,15.72,0.96,-0.05,7.87,-1.66,-0.91,1.30,3.23,12.07,2.17,0.588,0.667,7.414
163002,22.316577,87.302505,15.72,0.67,-0.48,9.22,-5.79,-3.11,0.77,-20.15,-10.72,-2.57,0.667,0.745,9.257
163194,22.316577,87.302505,15.72,1.11,0.35,8.52,-2.22,-2.07,1.33,18.57,5.41,2.90,0.628,0.628,8.669
163292,22.316577,87.302505,15.72,0.90,0.13,8.05,-0.39,-4.27,0.92,18.69,-22.43,-4.21,0.706,0.588,8.708
163440,22.316577,87.302505,15.72,1.25,-0.93,7.73,-1.05,-0.19,1.01,-4.44,27.54,0.62,0.588,1.020,8.826
163588,22.316577,87.302505,15.72,0.46,0.34,6.59,0.49,-0.95,1.59,10.37,-5.11,3.92,0.588,1.059,8.944
163792,22.316577,87.302505,15.72,0.95,-1.10,7.56,-0.37,0.09,1.04,-4.23,5.09,-2.69,0.471,0.549,7.649
163998,22.316583,87.302558,15.72,1.33,-0.74,7.95,1.37,-4.21,0.98,8.45,-20.86,-0.30,0.275,0.785,8.002
164191,22.316583,87.302558,15.72,1.68,-0.04,7.07,3.12,-1.13,1.24,9.10,15.94,1.34,1.098,0.824,9.101
164288,22.316583,87.302558,15.72,1.02,0.81,7.98,0.02,-2.18,0.66,-31.95,-10.86,-5.90,0.667,0.314,9.767
164436,22.316583,87.302558,15.72,1.25,0.02,7.65,-2.63,-1.75,1.53,-17.95,2.94,5.88,1.098,1.177,9.022
164583,22.316583,87.302558,15.72,0.48,0.24,8.56,-0.26,-4.86,0.14,16.15,-21.19,-9.50,0.039,0.667,8.081
164790,22.316583,87.302558,15.72,1.01,-0.60,6.80,0.05,0.11,0.08,1.51,24.01,-0.26,0.431,0.785,9.179
164995,22.316589,87.302597,15.72,0.93,0.58,7.76,4.33,-3.82,0.63,20.85,-19.18,2.64,0.863,1.294,8.473
165187,22.316589,87.302597,15.72,0.18,-0.36,9.21,12.15,-0.28,0.52,40.71,18.45,-0.56,0.118,0.510,8.630
165287,22.316589,87.302597,15.72,0.69,-0.16,7.99,-0.79,-3.34,0.91,-129.31,-30.61,3.89,1.177,0.510,10.513
165439,22.316589,87.302597,15.72,1.56,-1.03,7.18,-14.55,-0.34,1.97,-90.55,19.79,6.98,0.235,0.941,7.728
165588,22.316589,87.302597,15.72,0.87,0.04,9.23,-5.40,-0.39,1.63,61.38,-0.36,-2.25,1.138,0.667,8.238
165794,22.316589,87.302597,15.72,0.84,-0.95,12.00,-0.72,1.27,0.69,22.75,8.04,-4.56,-0.510,-0.039,8.120
166000,22.316589,87.302597,15.72,1.65,-0.48,7.90,-5.07,-2.06,0.18,-21.12,-16.16,-2.48,0.902,0.314,10.434
166195,22.316595,87.302650,15.72,2.28,-0.88,6.36,5.59,0.79,0.77,54.65,14.64,3.01,-0.353,1.059,7.688
166296,22.316595,87.302650,15.72,1.27,-0.54,7.23,5.56,-1.08,1.12,-0.30,-18.52,3.48,0.118,0.431,8.277
166443,22.316595,87.302650,15.72,1.17,-0.32,8.13,-2.20,-1.37,2.21,-52.76,-1.97,7.37,0.431,0.588,10.120
166592,22.316595,87.302650,15.72,0.59,-0.33,6.36,3.69,1.31,1.26,39.50,17.93,-6.35,-0.118,0.824,7.688
166798,22.316595,87.302650,15.72,1.17,-0.47,7.51,0.81,1.60,1.08,-13.97,1.45,-0.85,0.902,0.745,9.022
167003,22.316593,87.302688,15.72,1.00,0.53,8.46,-1.27,-1.82,1.40,-10.17,-16.68,1.53,0.196,0.981,9.336
167195,22.316593,87.302688,15.72,1.55,-1.08,8.13,-2.90,-2.23,1.23,-8.47,-2.15,-0.87,0.471,0.981,9.101
167292,22.316593,87.302688,15.72,0.66,0.32,8.14,-2.69,-3.07,1.15,2.12,-8.66,-0.79,0.314,0.667,8.081
167438,22.316593,87.302688,15.72,1.17,-0.01,9.10,2.09,-3.25,1.10,32.78,-1.25,-0.37,-0.235,0.275,7.532
167587,22.316593,87.302688,15.72,1.75,-0.74,8.50,-1.54,-1.65,1.36,-24.39,10.76,1.74,0.549,0.941,8.669
167794,22.316593,87.302688,15.72,1.00,-0.46,7.53,-1.63,2.73,1.08,-0.41,21.13,-1.36,0.628,0.549,8.630
168000,22.316595,87.302726,15.72,1.17,-0.35,6.89,6.95,0.79,0.65,41.61,-9.38,-2.08,0.118,0.588,7.453
168192,22.316595,87.302726,15.72,0.78,-0.36,8.95,-1.85,-0.49,1.23,-45.84,-6.68,3.02,0.549,0.981,9.611
168292,22.316595,87.302726,15.72,1.16,-0.04,6.97,3.02,-0.17,0.63,48.78,3.21,-6.03,0.314,0.588,9.257
168438,22.316595,87.302726,15.72,1.03,0.77,7.57,-1.16,-0.75,0.35,-28.65,-3.97,-1.88,0.118,0.667,9.375
168587,22.316595,87.302726,15.72,1.34,0.22,8.17,-2.93,-0.79,0.91,-11.89,-0.26,3.74,0.431,0.745,8.983
168794,22.316595,87.302726,15.72,0.67,0.40,8.56,-4.69,-2.93,0.24,-8.48,-10.36,-3.25,0.785,1.059,8.473
168999,22.316595,87.302772,15.72,1.26,-0.86,8.69,-0.33,-4.40,-0.15,21.26,-7.15,-1.86,0.549,1.648,10.003
169193,22.316595,87.302772,15.72,0.03,0.42,8.77,-0.11,0.84,0.20,1.10,26.99,1.77,0.588,0.628,6.551
169288,22.316595,87.302772,15.72,1.49,-1.09,8.61,-0.13,-0.26,0.05,-0.16,-11.57,-1.53,1.098,0.941,8.669
169438,22.316595,87.302772,15.72,1.40,-0.57,7.74,3.62,-0.87,-0.03,24.99,-4.07,-0.56,0.078,1.098,9.375
169586,22.316595,87.302772,15.72,1.06,-0.05,8.40,0.64,-1.24,-0.14,-20.12,-2.48,-0.72,0.785,0.941,9.022
169795,22.316595,87.302772,15.72,1.27,-0.57,8.84,6.54,-2.96,0.23,28.23,-8.25,1.75,0.471,0.941,8.826
170000,22.316593,87.302810,15.72,1.01,0.87,7.33,-0.06,-1.45,1.09,-32.21,7.37,4.21,0.392,0.392,8.120
170191,22.316593,87.302810,15.72,1.98,0.27,7.61,0.04,-1.65,0.59,0.52,-1.04,-2.64,0.431,1.098,8.277
170289,22.316593,87.302810,15.72,0.80,0.04,7.12,1.75,-1.66,0.94,17.45,-0.16,3.58,0.981,0.471,10.238
170435,22.316593,87.302810,15.72,0.76,0.01,6.86,-1.85,-0.44,1.33,-24.68,8.42,2.67,1.098,0.628,7.924
170582,22.316593,87.302810,15.72,1.01,0.37,7.96,-2.66,-1.10,1.63,-5.50,-4.52,2.08,0.745,0.785,9.532
170786,22.316593,87.302810,15.72,1.02,-0.11,8.00,-2.34,-1.18,1.04,1.57,-0.37,-2.92,-0.235,0.981,9.297
170991,22.316593,87.302810,15.72,0.46,-0.13,8.28,-3.32,-0.15,0.93,-4.77,4.99,-0.52,0.785,0.902,7.296
171183,22.316593,87.302810,15.72,0.14,0.32,7.60,1.60,1.08,1.21,25.64,6.40,1.47,-0.118,0.824,8.904
171279,22.316593,87.302810,15.72,0.61,-0.60,7.21,7.27,0.90,1.15,59.08,-1.83,-0.72,0.824,0.196,9.101
171424,22.316593,87.302810,15.72,1.16,0.51,8.76,-0.62,-4.76,1.66,-54.44,-39.06,3.58,0.706,0.471,7.649
171574,22.316593,87.302810,15.72,0.52,0.51,8.92,-1.50,-1.32,1.38,-5.90,22.95,-1.88,0.078,0.353,7.885
171780,22.316593,87.302810,15.72,1.24,-0.62,5.93,-2.34,-0.92,0.55,-4.04,1.93,-4.04,1.059,0.039,8.394
171984,22.316593,87.302810,15.72,1.32,0.55,10.10,-3.22,2.97,0.53,-4.34,19.08,-0.07,1.922,0.824,7.728
172177,22.316593,87.302810,15.72,0.13,-0.94,6.77,-3.73,1.30,1.50,-2.61,-8.66,4.98,-0.196,0.785,9.297
172276,22.316593,87.302810,15.72,1.19,-1.34,10.32,-12.14,-2.47,1.61,-84.97,-38.01,1.16,0.235,0.628,6.982
172428,22.316593,87.302810,15.72,1.71,0.29,6.96,-7.64,1.83,1.42,29.58,28.27,-1.26,1.412,0.196,6.943
172574,22.316593,87.302810,15.72,1.60,0.91,6.60,3.53,1.21,1.75,76.49,-4.24,2.25,0.941,0.039,7.492
172777,22.316593,87.302810,15.72,0.89,-0.62,7.57,2.98,0.11,1.84,-2.71,-5.45,0.45,1.177,0.981,8.669
172982,22.316593,87.302810,15.72,1.33,0.55,8.72,-12.69,-1.77,2.83,-76.45,-9.16,4.84,1.138,0.549,8.277
173174,22.316593,87.302810,15.72,0.55,-0.36,8.25,2.18,-2.51,2.72,77.45,-3.86,-0.60,0.588,0.628,8.826
173274,22.316593,87.302810,15.72,1.30,-1.00,7.45,-2.74,0.97,3.21,-49.16,34.81,4.89,0.628,0.902,8.748
173421,22.316593,87.302810,15.72,0.58,-0.03,7.38,-1.95,-1.61,2.82,5.35,-17.55,-2.65,0.824,0.981,7.571
173570,22.316593,87.302810,15.72,0.80,-0.18,7.41,0.72,-0.64,1.21,17.93,6.51,-10.76,0.157,0.824,7.845
173776,22.316593,87.302810,15.72,0.97,-0.88,7.05,6.37,-2.05,1.81,27.46,-6.82,2.89,0.588,0.471,9.924
173981,22.316593,87.302810,15.72,1.14,-0.63,6.71,1.37,-0.73,0.78,-24.43,6.40,-5.03,0.785,0.353,8.865
174173,22.316593,87.302810,15.72,1.39,-0.42,8.67,-1.03,-2.56,0.27,-12.48,-9.50,-2.62,-0.353,0.863,8.865
174275,22.316593,87.302810,15.72,0.98,-0.55,6.81,3.89,-1.95,-0.12,48.27,5.99,-3.89,-0.039,1.059,7.610
174424,22.316593,87.302810,15.72,1.53,0.14,8.90,-4.58,-0.73,1.00,-56.87,8.15,7.53,0.667,0.785,8.983
174570,22.316593,87.302810,15.72,1.28,-0.35,8.06,-2.76,-3.49,0.00,12.50,-18.87,-6.85,1.491,0.588,8.944
174778,22.316593,87.302810,15.72,1.43,-0.20,6.67,-5.70,-2.65,0.05,-14.17,4.04,0.22,-0.314,1.098,8.355
174983,22.316593,87.302810,15.72,1.26,-0.38,9.92,-3.53,0.56,0.44,10.58,15.68,1.90,1.020,0.431,8.473
175175,22.316593,87.302810,15.72,1.04,-0.61,7.64,-3.22,-2.78,-0.59,1.63,-17.41,-5.33,-0.510,0.549,8.081
175278,22.316593,87.302810,15.72,1.70,0.53,9.81,-13.76,-2.21,0.93,-102.35,5.56,14.75,0.235,0.706,7.335
175427,22.316593,87.302810,15.72,1.65,0.13,6.87,-2.36,1.61,0.50,76.54,25.62,-2.87,0.314,0.549,8.041
175574,22.316593,87.302810,15.72,1.91,-1.03,8.79,-1.15,3.00,0.64,8.26,9.45,0.93,0.745,0.902,9.924
175776,22.316593,87.302810,15.72,1.33,-0.05,10.40,0.34,-3.59,-0.05,7.33,-32.61,-3.44,0.353,0.392,8.473
175982,22.316593,87.302810,15.72,1.19,-0.96,7.27,11.69,-4.18,0.24,55.14,-2.89,1.41,0.941,0.981,9.179
176175,22.316593,87.302810,15.72,1.46,-0.61,7.38,1.47,-0.88,0.56,-53.00,17.13,1.66,0.235,1.177,8.473
176274,22.316593,87.302810,15.72,1.27,-1.36,10.49,-0.47,-1.28,0.65,-19.59,-4.09,0.93,0.431,1.020,9.846
176423,22.316593,87.302810,15.72,0.42,-0.46,6.61,5.34,-0.58,0.56,38.99,4.71,-0.61,0.863,0.785,10.003
176571,22.316593,87.302810,15.72,1.43,0.80,6.38,14.53,-0.66,0.14,62.15,-0.57,-2.84,1.177,1.294,10.160
176778,22.316593,87.302810,15.72,1.30,0.74,4.79,2.82,-5.13,0.79,-56.57,-21.57,3.17,0.000,0.785,7.296
176984,22.316593,87.302810,15.72,1.58,0.34,10.55,-5.44,0.77,1.06,-40.13,28.64,1.30,0.785,0.314,8.238
177176,22.316593,87.302810,15.72,0.64,-0.32,7.77,3.53,-1.92,0.98,46.72,-14.03,-0.40,0.745,0.824,8.120
177277,22.316593,87.302810,15.72,1.71,-0.42,8.26,4.89,0.72,1.05,13.45,26.15,0.60,0.628,0.863,8.512
177422,22.316593,87.302810,15.72,0.93,-0.45,6.50,-3.83,-3.02,0.99,-60.12,-25.80,-0.37,1.765,1.098,11.062
177574,22.316593,87.302810,15.72,0.70,-0.53,6.28,12.01,-1.61,1.00,104.21,9.29,0.05,0.745,0.941,8.041
177779,22.316593,87.302810,15.72,0.86,0.24,7.66,-1.84,-2.92,1.01,-67.55,-6.37,0.04,0.235,0.785,8.238
177984,22.316593,87.302810,15.72,1.82,-1.34,11.30,-0.14,-1.67,1.92,8.30,6.07,4.43,-0.235,0.667,7.571
178176,22.316593,87.302810,15.72,1.35,-0.91,8.63,-0.11,2.11,1.79,0.12,19.72,-0.64,0.196,0.157,7.688
178274,22.316593,87.302810,15.72,1.04,0.11,10.45,2.37,-2.36,1.66,25.39,-45.65,-1.40,-0.118,0.471,7.688
178423,22.316593,87.302810,15.72,0.78,-0.35,9.11,0.80,-2.24,1.94,-10.55,0.82,1.90,0.471,0.941,8.826
178570,22.316593,87.302810,15.72,1.33,-0.90,6.92,-2.92,1.48,1.74,-25.29,25.29,-1.35,0.706,0.549,9.218
178777,22.316593,87.302810,15.72,0.79,0.13,8.99,-5.79,-0.78,0.94,-13.90,-10.92,-3.87,0.314,0.588,6.982
178982,22.316593,87.302810,15.72,0.62,-0.48,9.04,-9.50,-2.07,1.44,-18.06,-6.29,2.46,1.255,0.785,9.846
179174,22.316593,87.302810,15.72,0.89,0.16,8.96,-0.03,0.08,1.50,49.30,11.17,0.28,0.471,0.902,10.591
179275,22.316593,87.302810,15.72,0.91,0.46,11.61,-10.36,-4.95,0.69,-102.26,-49.73,-8.01,0.902,0.824,5.884
179427,22.316593,87.302810,15.72,1.76,-0.42,8.74,2.93,0.21,0.15,87.43,33.95,-3.52,0.628,1.059,8.355
179574,22.316593,87.302810,15.72,1.05,-0.26,6.39,6.64,-0.14,-0.22,25.24,-2.39,-2.54,0.118,1.294,10.277
179782,22.316593,87.302810,15.72,0.74,-0.10,9.05,-2.90,0.56,0.27,-45.87,3.34,2.35,0.745,0.785,8.748
179987,22.316593,87.302810,15.72,0.98,0.06,7.09,3.11,-3.74,-0.09,29.34,-20.96,-1.75,0.588,0.745,10.317
180179,22.316593,87.302810,15.72,1.26,-0.23,6.39,7.69,-2.30,0.82,23.85,7.51,4.73,1.334,1.412,10.277
180280,22.316593,87.302810,15.72,2.18,0.95,6.80,2.99,-2.12,-0.22,-46.56,1.74,-10.28,0.981,0.588,9.571
180428,22.316593,87.302810,15.72,1.31,-0.46,8.45,-3.31,-1.74,0.72,-42.60,2.58,6.34,0.275,0.785,7.806
180576,22.316593,87.302810,15.72,0.59,-0.64,8.90,-2.40,-2.05,0.28,6.14,-2.06,-2.94,-0.785,1.138,10.160
180785,22.316593,87.302810,15.72,1.36,-0.31,8.97,-5.45,-1.02,0.39,-14.57,4.93,0.51,0.667,0.628,8.826
180989,22.316637,87.303352,15.72,0.94,0.46,8.46,-4.23,-1.73,0.63,5.99,-3.52,1.20,1.138,0.510,10.748
181180,22.316637,87.303352,15.72,1.61,-0.16,6.92,3.99,-4.80,-0.06,43.04,-16.07,-3.64,0.275,0.549,8.238
181284,22.316637,87.303352,15.72,1.42,-0.76,7.68,-6.14,-0.47,0.38,-97.40,41.62,4.26,0.549,1.648,11.023
181433,22.316637,87.303352,15.72,0.96,-0.08,9.32,9.60,-4.37,0.30,105.59,-26.13,-0.56,0.549,0.196,8.316
181583,22.316637,87.303352,15.72,0.72,-0.22,7.81,-2.17,-1.11,0.40,-78.42,21.68,0.71,-0.235,1.216,8.394
181791,22.316637,87.303352,15.72,0.97,0.44,8.51,0.94,-1.45,0.27,14.94,-1.61,-0.62,0.471,0.667,8.591
181996,22.316644,87.303398,15.72,0.81,0.11,5.92,10.82,-3.82,-0.07,48.18,-11.58,-1.68,0.785,0.196,9.454
182190,22.316644,87.303398,15.72,1.15,-0.67,8.16,-4.76,-0.88,0.21,-80.27,15.19,1.42,0.588,0.471,6.276
182290,22.316644,87.303398,15.72,1.24,-0.29,6.59,-0.54,-1.34,0.18,42.14,-4.58,-0.31,0.157,0.745,7.218
182438,22.316644,87.303398,15.72,1.37,-0.55,9.37,-7.13,-4.79,0.57,-44.51,-23.36,2.68,-0.785,0.863,8.081
182589,22.316644,87.303398,15.72,1.40,-0.33,7.36,-7.29,-1.42,0.98,-1.06,22.34,2.68,0.628,0.785,11.846
182797,22.316644,87.303398,15.72,1.48,0.56,9.07,-10.05,0.20,0.58,-13.25,7.78,-1.91,0.667,0.353,8.002
182989,22.316644,87.303398,15.72,1.45,0.08,9.22,-7.94,-1.84,0.07,10.97,-10.62,-2.66,0.706,0.785,9.493
183182,22.316644,87.303398,15.72,1.69,-0.60,8.43,-8.62,-3.07,0.81,-3.52,-6.37,3.84,-0.706,1.216,5.609
183284,22.316644,87.303398,15.72,1.21,1.45,9.69,-1.32,-6.36,-0.53,71.55,-32.26,-13.17,0.667,2.157,10.748
183436,22.316644,87.303398,15.72,1.35,-0.41,7.80,3.14,5.93,1.31,29.33,80.86,12.15,0.981,0.902,6.355
183582,22.316644,87.303398,15.72,1.27,-1.89,10.43,-8.95,-4.55,-0.55,-82.82,-71.79,-12.76,-0.078,0.275,9.493
183795,22.316644,87.303398,15.72,1.47,-1.30,7.30,-2.86,1.84,-1.77,28.60,30.00,-5.73,0.549,0.785,6.551
183987,22.316644,87.303398,15.72,1.05,-0.69,10.00,-11.14,0.62,0.74,-43.10,-6.36,13.08,0.118,0.275,7.728
184180,22.316644,87.303398,15.72,1.43,0.27,9.24,-9.73,-0.32,0.98,7.32,-4.86,1.27,0.078,0.981,6.943
184281,22.316644,87.303398,15.72,0.80,-0.08,10.65,-2.36,0.27,-0.28,72.93,5.90,-12.55,0.981,0.824,8.983
184429,22.316644,87.303398,15.72,0.65,0.03,5.45,-0.47,2.09,0.23,12.74,12.28,3.46,0.275,0.706,8.944
184574,22.316644,87.303398,15.72,1.81,0.43,9.39,-2.15,-4.33,0.50,-11.58,-44.27,1.84,2.079,0.941,7.688
184782,22.316644,87.303398,15.72,0.27,0.52,7.22,0.65,-2.02,0.77,13.47,11.08,1.32,1.098,0.902,10.356
184988,22.316644,87.303398,15.72,1.14,0.03,6.30,2.21,1.29,2.07,7.56,16.08,6.30,1.255,0.196,8.630
185178,22.316644,87.303398,15.72,1.49,-0.22,8.22,-2.38,-1.61,0.76,-24.15,-15.27,-6.91,0.314,1.294,10.748
185284,22.316644,87.303398,15.72,0.53,-1.19,8.55,2.03,-2.05,2.15,41.62,-4.10,13.11,1.216,0.314,9.140
185432,22.316644,87.303398,15.72,0.59,-0.02,7.96,-5.03,-1.99,1.34,-47.71,0.36,-5.42,0.863,0.902,8.198
185580,22.316644,87.303398,15.72,0.55,0.08,8.29,1.75,-4.80,1.92,45.80,-18.98,3.92,1.177,1.177,9.414
185785,22.316644,87.303398,15.72,1.29,0.06,9.05,-8.71,-0.20,1.47,-51.01,22.45,-2.23,-0.078,0.431,10.670
185992,22.316669,87.303581,15.72,0.42,-0.76,6.17,24.39,-3.30,0.92,159.90,-14.97,-2.66,0.431,-0.549,3.844
186185,22.316669,87.303581,15.72,1.78,-1.33,6.98,-8.45,-5.96,0.73,-170.15,-13.80,-0.99,-0.628,1.216,9.454
186290,22.316669,87.303581,15.72,1.20,-0.49,5.39,1.08,5.21,1.60,90.80,106.36,8.29,0.667,1.608,10.356
186437,22.316669,87.303581,15.72,0.64,-0.13,8.39,-6.93,-1.92,2.44,-54.53,-48.50,5.71,0.157,0.510,9.846
186587,22.316669,87.303581,15.72,1.38,1.07,9.22,2.84,-6.99,0.59,65.14,-33.79,-12.32,0.235,-0.078,7.492
186793,22.316669,87.303581,15.72,1.20,-0.06,9.76,-7.16,-2.47,1.08,-48.54,21.97,2.37,-0.353,1.373,6.551
186986,22.316669,87.303581,15.72,1.52,-1.91,10.78,-0.64,0.11,2.92,33.78,13.33,9.57,0.785,-0.039,9.061
187180,22.316669,87.303581,15.72,0.69,-0.14,6.72,1.66,3.58,4.09,11.88,17.90,6.02,0.785,0.196,8.159
187278,22.316669,87.303581,15.72,-0.03,-0.53,8.03,7.40,-2.91,2.67,58.58,-66.21,-14.49,0.510,0.549,9.454
187427,22.316669,87.303581,15.72,0.08,-0.46,7.10,0.54,-1.71,2.59,-46.06,8.04,-0.56,-0.039,0.785,8.669
187577,22.316669,87.303581,15.72,1.16,-0.08,9.18,0.47,0.44,2.84,-0.46,14.35,1.68,0.235,0.981,8.355
187782,22.316680,87.303680,15.39,0.71,0.58,9.01,-0.82,0.02,1.95,-6.29,-2.09,-4.36,0.588,0.745,7.845
187986,22.316680,87.303680,15.39,1.20,-0.29,9.18,-4.66,-4.43,2.63,-18.86,-21.78,3.37,0.863,0.863,7.453
188179,22.316680,87.303680,15.39,1.75,0.25,7.46,1.71,-2.60,2.21,33.03,9.49,-2.21,0.785,0.510,8.748
188278,22.316680,87.303680,15.39,1.44,0.17,11.67,-15.53,-2.43,2.24,-174.18,1.70,0.31,0.824,0.588,6.904
188428,22.316680,87.303680,15.39,0.48,-0.15,8.52,3.10,-1.12,2.22,124.22,8.70,-0.10,-0.196,0.706,7.218
188576,22.316680,87.303680,15.39,0.70,-0.13,8.36,-5.51,-1.43,2.50,-58.18,-2.06,1.86,-0.078,0.314,8.355
188784,22.316680,87.303680,15.39,0.82,-0.02,8.29,-7.72,-0.50,1.91,-10.61,4.44,-2.83,0.314,0.549,8.983
188989,22.316686,87.303726,15.39,1.29,0.05,9.02,-0.90,-3.06,1.58,33.25,-12.47,-1.60,0.549,0.667,9.297
189181,22.316686,87.303726,15.39,0.70,0.43,7.76,5.21,1.50,1.18,31.81,23.78,-2.11,1.255,1.177,8.316
189279,22.316686,87.303726,15.39,1.97,-0.63,10.69,-1.82,-4.22,0.69,-71.74,-58.42,-4.99,0.510,0.981,7.885
189430,22.316686,87.303726,15.39,0.65,-0.02,7.05,-2.85,0.43,0.91,-6.77,30.79,1.47,0.510,0.510,9.493
189577,22.316686,87.303726,15.39,1.00,-0.27,9.14,2.79,-3.21,0.76,38.32,-24.72,-1.04,0.353,0.785,6.825
189784,22.316686,87.303726,15.39,0.92,-0.18,7.25,-2.03,-1.36,0.63,-23.27,8.92,-0.63,0.588,0.667,7.767
189990,22.316696,87.303779,15.39,1.58,-0.61,8.70,-2.21,-2.13,0.16,-0.85,-3.74,-2.26,0.549,1.294,8.394
190182,22.316696,87.303779,15.39,1.01,0.31,9.83,-6.89,0.24,0.45,-24.41,12.36,1.51,-0.039,0.824,9.061
190281,22.316696,87.303779,15.39,1.08,-0.98,8.07,-5.55,-1.30,1.18,13.57,-15.58,7.33,0.549,0.981,8.630
190430,22.316696,87.303779,15.39,1.21,-0.60,7.24,0.13,-2.09,-0.07,38.12,-5.33,-8.35,0.863,1.608,8.041
190578,22.316696,87.303779,15.39,1.06,-0.78,7.89,-1.24,-0.79,0.67,-9.23,8.77,5.00,0.471,1.098,9.375
190784,22.316696,87.303779,15.39,1.36,-0.63,6.86,-1.93,-1.10,0.38,-3.37,-1.48,-1.41,0.863,0.824,8.238
190989,22.316707,87.303825,15.39,1.54,0.04,9.35,3.44,-1.01,0.59,26.21,0.45,1.01,0.235,0.745,7.963
191180,22.316707,87.303825,15.39,1.41,-0.24,9.55,-4.03,0.34,0.18,-39.13,7.03,-2.12,0.863,0.628,8.944
191281,22.316707,87.303825,15.39,1.38,-0.81,8.08,2.70,0.98,0.85,66.66,6.42,6.65,0.863,0.941,8.787
191425,22.316707,87.303825,15.39,1.15,0.41,8.01,-1.82,-2.59,0.08,-31.44,-24.81,-5.41,0.628,0.824,8.041
191575,22.316707,87.303825,15.39,0.85,0.26,6.95,-2.58,-1.09,0.73,-5.04,9.97,4.33,1.020,1.294,8.120
191778,22.316707,87.303825,15.39,0.93,-0.12,7.73,1.77,-0.68,0.80,21.43,2.03,0.38,0.667,0.785,7.649
191983,22.316707,87.303825,15.39,1.20,-0.37,7.77,1.68,-3.50,0.08,-0.45,-13.74,-3.54,0.510,1.255,8.512
192175,22.316707,87.303825,15.39,0.90,0.53,7.13,-4.43,-3.92,0.38,-31.81,-2.23,1.59,0.588,1.255,10.160
192277,22.316707,87.303825,15.39,1.09,0.43,8.74,-1.89,-0.04,0.82,24.85,38.09,4.27,0.078,1.020,8.316
192423,22.316707,87.303825,15.39,1.37,-0.30,7.00,-0.44,-2.21,-0.24,9.99,-14.90,-7.22,0.706,0.941,7.375
192573,22.316707,87.303825,15.39,1.27,0.23,7.86,2.64,-0.21,0.02,20.51,13.33,1.68,0.628,1.020,8.748
192777,22.316707,87.303825,15.39,0.74,-0.35,7.86,-2.90,-0.33,-0.43,-27.17,-0.56,-2.17,0.353,0.981,8.630
192983,22.316707,87.303825,15.39,1.32,-0.30,8.12,-0.72,-1.63,0.41,10.60,-6.30,4.08,0.745,0.745,8.316
193174,22.316707,87.303825,15.39,1.33,0.18,7.68,-0.45,-0.75,0.73,1.40,4.60,1.68,0.314,1.020,8.787
193272,22.316707,87.303825,15.39,1.17,-0.18,8.15,-1.21,-0.25,0.53,-7.71,5.06,-2.10,0.314,0.941,8.277
193420,22.316707,87.303825,15.39,1.36,0.17,8.04,-2.73,-2.58,-0.31,-10.32,-15.73,-5.67,0.431,0.706,8.748
193570,22.316707,87.303825,15.39,1.51,-0.34,7.94,2.55,-2.77,-0.54,35.22,-1.27,-1.53,0.588,1.138,8.238
193777,22.316707,87.303825,15.39,1.20,-0.75,9.22,-4.23,-1.70,-0.63,-32.75,5.16,-0.41,0.588,1.059,9.022
193983,22.316707,87.303825,15.39,0.68,0.06,7.21,1.56,0.30,-0.50,28.09,9.71,0.63,0.157,1.020,9.414
194173,22.316707,87.303825,15.39,1.15,-0.46,8.41,-0.28,-2.26,-0.06,-9.68,-13.46,2.29,0.471,0.549,8.669
194278,22.316707,87.303825,15.39,1.38,-0.74,8.36,4.06,-1.93,0.17,41.37,3.13,2.18,0.118,0.471,7.845
194422,22.316707,87.303825,15.39,1.45,-0.37,7.20,3.16,-2.63,-0.03,-6.26,-4.82,-1.38,0.863,1.098,8.904
194571,22.316707,87.303825,15.39,1.43,-0.53,8.82,0.64,-1.89,0.23,-16.91,4.92,1.74,0.039,0.628,8.120
194777,22.316707,87.303825,15.39,1.14,-0.45,8.14,-1.95,-1.48,0.47,-12.56,2.00,1.15,0.981,1.020,7.963
194981,22.316707,87.303825,15.39,1.12,-0.41,8.05,0.34,-2.21,-0.13,11.23,-3.55,-2.92,0.745,0.549,9.179
195174,22.316707,87.303825,15.39,1.58,-0.04,8.99,-1.35,-0.58,0.04,-8.78,8.42,0.87,-0.235,0.981,10.003
195276,22.316707,87.303825,15.39,0.80,0.53,6.34,7.58,-0.86,0.18,87.56,-2.77,1.35,-0.275,0.706,9.964
195423,22.316707,87.303825,15.39,0.90,-0.37,8.04,4.33,-1.55,0.93,-22.12,-4.67,5.14,0.510,1.098,9.297
195570,22.316707,87.303825,15.39,1.12,-0.30,7.58,1.33,-1.52,0.19,-20.41,0.21,-5.04,0.039,0.706,7.688
195777,22.316707,87.303825,15.39,1.47,0.10,8.57,-3.09,1.40,1.11,-21.35,14.12,4.46,0.628,0.549,7.492
195983,22.316707,87.303825,15.39,1.18,-0.66,7.54,2.55,-2.29,0.75,27.38,-17.94,-1.78,0.706,0.785,9.532
196174,22.316707,87.303825,15.39,1.50,0.78,7.50,2.31,-1.60,1.12,-1.28,3.60,1.96,0.745,0.510,8.238
196274,22.316707,87.303825,15.39,0.30,-0.77,8.92,-0.42,-2.66,0.96,-27.25,-10.53,-1.60,0.314,0.549,9.650
196423,22.316707,87.303825,15.39,0.85,-1.03,9.32,2.47,-0.60,1.83,19.42,13.83,5.84,0.588,0.706,7.610
196571,22.316707,87.303825,15.39,0.81,-0.36,8.25,4.64,-2.63,1.40,14.65,-13.77,-2.89,0.235,0.824,9.022
196777,22.316707,87.303825,15.39,1.30,-0.16,7.91,2.89,-3.39,2.00,-8.49,-3.67,2.89,1.059,0.902,9.728
196983,22.316749,87.304122,15.39,0.90,-0.46,8.32,2.02,-1.10,3.02,-4.26,11.12,4.93,1.255,0.824,8.394
197175,22.316749,87.304122,15.39,0.45,-0.20,8.36,-1.53,0.58,3.23,-18.49,8.75,1.11,1.177,1.020,9.807
197273,22.316749,87.304122,15.39,0.99,0.11,7.50,2.11,-3.07,2.88,37.23,-37.23,-3.58,1.138,0.863,9.179
197421,22.316749,87.304122,15.39,0.78,-0.15,7.31,-1.98,-2.38,2.96,-27.65,4.64,0.57,0.706,0.510,7.218
197568,22.316749,87.304122,15.39,0.94,-0.39,9.19,7.19,-2.51,2.46,62.37,-0.88,-3.43,0.314,0.902,8.904
197774,22.316749,87.304122,15.39,0.65,-0.25,7.99,-4.86,-2.69,2.64,-58.51,-0.85,0.89,0.392,0.981,9.297
197980,22.316749,87.304122,15.39,1.17,-0.61,8.44,4.60,0.84,2.63,45.95,17.12,-0.07,0.785,0.706,8.081
198172,22.316749,87.304122,15.39,1.47,-0.04,7.85,-5.81,-2.68,2.41,-54.23,-18.33,-1.11,0.353,0.902,8.787
198277,22.316749,87.304122,15.39,1.04,-0.99,7.84,-1.67,0.63,2.89,39.40,31.48,4.58,0.392,0.667,7.806
198423,22.316749,87.304122,15.39,0.82,-0.33,8.28,-3.96,-3.57,1.76,-15.69,-28.76,-7.74,1.020,0.706,7.649
